aX;aY;aZ
-0.07;0.00;0.96
0.03;-0.02;1.05
-0.03;-0.01;0.99
0.01;-0.01;1.03
0.02;-0.02;1.04
-0.05;-0.00;0.98
0.02;-0.02;1.04
-0.06;0.00;0.97
-0.03;-0.01;0.99
-0.02;-0.01;1.01
-0.06;0.00;0.96
0.02;-0.02;1.05
-0.04;-0.00;0.97
0.01;-0.02;1.03
-0.06;-0.00;0.97
-0.04;-0.01;0.98
-0.01;-0.01;1.02
-0.06;0.00;0.96
0.03;-0.02;1.05
-0.03;-0.01;1.00
-0.00;-0.01;1.02
0.02;-0.02;1.04
-0.02;-0.01;1.00
-0.02;-0.01;1.00
-0.02;-0.01;1.00
-0.02;-0.01;1.00
-0.02;-0.01;1.00
-0.02;-0.01;1.00
-0.02;-0.01;1.00
-0.02;-0.01;1.00
-0.02;-0.01;1.00
-0.02;-0.01;1.00
-0.02;-0.01;1.00
-0.02;-0.01;1.00
-0.02;-0.01;1.00
-0.02;-0.01;1.00
-0.04;-0.01;0.99
0.01;-0.02;1.03
0.01;-0.02;0.98
-0.05;-0.00;0.98
-0.00;-0.01;1.02
-0.06;0.00;0.97
0.03;-0.02;1.05
-0.02;-0.01;1.01
-0.01;-0.01;1.02
0.02;-0.02;1.05
-0.06;-0.00;0.97
0.01;-0.01;1.03
-0.05;0.00;0.97
-0.04;-0.00;0.98
-0.01;-0.01;1.02
-0.06;-0.00;0.96
0.03;-0.02;1.05
-0.06;-0.00;0.97
0.00;-0.01;1.02
-0.05;-0.00;0.98
-0.05;-0.00;0.97
0.01;-0.01;1.03
-0.06;0.00;0.97
0.02;-0.02;1.05
-0.02;-0.01;1.01
-0.01;-0.01;1.01
0.02;-0.02;1.05
-0.06;0.00;0.97
0.01;-0.01;1.03
-0.02;-0.01;1.00
-0.02;-0.01;1.00
-0.02;-0.01;1.00
-0.02;-0.01;1.00
-0.02;-0.01;1.00
-0.02;-0.01;1.00
-0.02;-0.01;1.00
-0.02;-0.01;1.00
-0.02;-0.01;1.00
-0.02;-0.01;1.00
-0.02;-0.01;1.01
-0.02;-0.01;1.00
-0.02;-0.01;1.00
-0.02;-0.01;1.00
-0.07;0.00;0.96
-0.02;-0.01;1.00
-0.02;-0.01;1.00
-0.06;0.00;0.96
0.02;-0.02;1.05
-0.04;-0.00;0.98
0.01;-0.01;1.04
0.01;-0.01;1.03
-0.04;-0.00;0.99
0.02;-0.02;1.05
-0.06;-0.00;0.96
0.02;-0.02;1.05
-0.03;-0.01;1.00
0.00;-0.01;1.03
0.02;-0.02;1.04
-0.05;-0.00;0.98
0.02;-0.02;1.04
-0.06;0.00;0.97
-0.03;-0.01;0.99
-0.02;-0.01;1.01
-0.06;0.00;0.96
0.02;-0.02;1.05
-0.04;-0.00;0.99
0.01;-0.02;1.03
-0.05;-0.00;0.97
-0.04;-0.00;0.98
-0.00;-0.01;1.02
-0.06;0.00;0.96
0.03;-0.02;1.05
-0.03;-0.01;1.00
-0.01;-0.01;1.01
-0.02;-0.01;1.00
-0.02;-0.01;1.00
-0.02;-0.01;1.00
-0.02;-0.01;1.00
-0.02;-0.01;1.00
-0.02;-0.01;1.00
-0.02;-0.01;1.00
-0.02;-0.01;1.00
-0.02;-0.01;1.00
-0.02;-0.01;1.00
-0.02;-0.01;1.00
-0.02;-0.01;1.00
-0.02;-0.01;1.01
-0.06;0.00;0.97
0.01;-0.01;1.03
-0.06;-0.00;0.97
0.03;-0.02;1.05
-0.01;-0.01;1.01
-0.01;-0.01;1.01
0.02;-0.02;0.99
-0.06;0.00;0.97
0.02;-0.02;1.04
-0.05;-0.00;0.98
0.02;-0.02;1.04
-0.00;-0.01;1.02
-0.03;-0.01;1.00
0.03;-0.02;1.05
-0.06;0.00;0.96
-0.00;-0.01;1.02
-0.04;-0.00;0.99
-0.05;-0.00;0.97
0.01;-0.02;1.04
-0.06;0.00;0.98
0.02;-0.02;1.05
-0.06;0.00;0.96
-0.02;-0.01;1.00
-0.03;-0.01;1.00
-0.06;0.00;0.97
0.02;-0.02;1.04
-0.05;-0.00;0.98
0.02;-0.02;1.04
0.00;-0.02;1.03
-0.02;-0.01;1.01
-0.01;-0.01;1.01
-0.02;-0.01;1.00
-0.02;-0.01;1.00
-0.02;-0.01;1.00
-0.02;-0.01;1.00
-0.02;-0.01;1.00
-0.02;-0.01;1.01
-0.02;-0.01;1.00
-0.02;-0.01;1.00
-0.02;-0.01;1.00
-0.02;-0.01;1.00
-0.02;-0.01;1.00
-0.02;-0.01;1.00
-0.02;-0.01;1.01
0.02;-0.02;1.04
-0.01;-0.01;1.02
-0.02;-0.01;1.00
-0.03;-0.01;1.00
-0.06;-0.00;0.96
0.02;-0.02;1.04
-0.05;-0.00;0.98
0.02;-0.02;1.04
0.01;-0.01;1.03
-0.03;-0.00;0.99
0.02;-0.02;1.05
-0.06;0.00;0.96
-0.01;-0.01;1.01
-0.03;-0.01;0.99
-0.06;-0.00;0.97
0.01;-0.02;1.04
-0.05;-0.00;0.98
0.02;-0.02;1.04
-0.06;0.00;0.97
-0.03;-0.01;1.00
-0.02;-0.01;1.00
-0.06;0.00;0.96
0.02;-0.02;1.05
-0.04;-0.00;0.99
0.01;-0.02;1.03
0.01;-0.02;1.03
-0.04;-0.01;0.99
0.02;-0.02;1.05
-0.06;-0.00;0.97
-0.02;-0.01;1.01
-0.02;-0.01;1.01
-0.02;-0.01;1.00
-0.02;-0.01;1.01
-0.02;-0.01;1.00
-0.02;-0.01;1.01
-0.02;-0.01;1.01
-0.02;-0.01;1.00
-0.02;-0.01;1.00
-0.02;-0.01;1.01
-0.02;-0.01;1.00
-0.02;-0.01;1.00
-0.02;-0.01;1.00
-0.02;-0.01;1.00
-0.03;-0.01;0.99
-0.02;-0.01;1.00
-0.06;0.00;0.96
0.02;-0.02;1.04
-0.04;-0.00;0.99
0.01;-0.02;1.04
0.01;-0.02;1.03
-0.04;-0.01;0.99
0.02;-0.02;1.05
-0.06;0.00;0.96
-0.01;-0.01;1.01
-0.03;-0.01;1.00
-0.06;0.00;1.03
0.01;-0.02;1.04
-0.05;-0.00;0.98
0.02;-0.02;1.04
-0.06;0.00;0.97
-0.03;-0.01;0.99
-0.02;-0.01;1.01
-0.06;0.00;0.96
0.02;-0.02;1.05
-0.04;-0.01;0.99
0.01;-0.02;1.03
0.01;-0.02;1.04
-0.04;-0.00;0.98
0.02;-0.02;1.04
-0.06;0.00;0.97
0.02;-0.02;1.05
-0.02;-0.01;1.00
-0.01;-0.01;1.01
-0.01;-0.01;1.01
-0.02;-0.01;1.00
-0.02;-0.01;1.00
-0.02;-0.01;1.01
-0.02;-0.01;1.00
-0.02;-0.01;1.01
-0.02;-0.01;1.00
-0.02;-0.01;1.00
-0.02;-0.01;1.00
-0.02;-0.01;1.00
-0.02;-0.01;1.00
-0.02;-0.01;1.00
-0.02;-0.01;1.00
-0.02;-0.01;1.01
0.02;-0.02;1.04
-0.01;-0.01;1.02
-0.02;-0.01;1.00
0.02;-0.02;1.05
-0.06;0.00;0.96
-0.00;-0.01;1.02
-0.05;-0.00;0.98
-0.05;-0.00;0.97
0.00;-0.01;1.03
-0.06;-0.01;0.99
0.02;-0.02;1.05
-0.06;0.00;0.96
-0.01;-0.01;1.01
-0.03;-0.01;0.99
-0.06;0.00;0.97
0.01;-0.02;1.04
-0.05;-0.00;0.98
0.02;-0.02;1.04
-0.00;-0.01;1.02
-0.03;-0.01;1.00
0.02;-0.02;1.05
-0.06;0.00;0.96
-0.01;-0.01;1.05
-0.04;-0.01;0.99
0.01;-0.02;1.03
0.01;-0.01;1.03
-0.04;-0.00;0.99
0.02;-0.02;1.05
-0.06;-0.00;0.97
-0.02;-0.01;1.01
-0.02;-0.01;1.00
-0.02;-0.01;1.00
-0.02;-0.01;1.00
-0.02;-0.01;1.00
-0.02;-0.01;1.00
-0.02;-0.01;1.00
-0.01;-0.00;1.00
-0.01;-0.01;1.00
-0.03;-0.02;1.01
-0.02;-0.01;1.00
-0.02;-0.01;1.00
-0.02;-0.01;1.00
-0.01;-0.01;1.00
0.03;-0.06;0.99
-0.00;-0.02;1.00
0.11;0.06;0.98
-0.03;0.08;1.00
0.01;0.02;1.00
0.07;-0.04;1.00
-0.03;0.03;0.99
-0.04;-0.02;1.00
-0.03;-0.01;1.01
0.04;0.02;1.00
0.06;0.00;1.00
0.01;-0.04;1.01
-0.03;-0.03;1.01
-0.08;0.00;1.00
-0.02;0.01;1.00
-0.02;-0.00;1.00
-0.01;0.07;1.04
0.11;0.10;0.96
0.16;0.09;0.96
-0.32;0.04;1.04
-0.29;-0.01;1.01
-0.12;-0.02;0.99
-0.10;-0.02;1.02
-0.09;-0.01;1.02
-0.07;0.03;1.03
-0.10;0.02;1.01
-0.11;0.05;1.03
-0.12;0.06;1.01
-0.12;0.08;0.99
-0.11;0.03;1.07
-0.15;0.06;1.04
-0.15;0.11;1.04
-0.12;0.14;1.00
-0.12;0.00;0.99
-0.15;-0.04;0.99
-0.15;-0.10;1.00
-0.19;-0.07;1.00
-0.18;-0.11;1.05
-0.23;-0.13;1.08
-0.22;-0.09;1.08
-0.25;-0.02;1.10
-0.18;0.01;1.09
-0.16;-0.01;1.09
-0.16;-0.11;1.13
-0.20;-0.11;1.14
-0.18;-0.15;1.12
-0.14;-0.32;1.06
-0.12;-0.38;1.02
-0.15;-0.52;0.97
-0.16;-0.57;1.00
-0.07;-0.50;0.83
-0.05;-0.50;0.69
0.02;-0.61;0.73
0.03;-0.60;0.69
-0.02;-0.67;0.62
-0.03;-0.71;0.61
-0.04;-0.76;0.61
-0.07;-0.70;0.62
-0.03;-0.73;0.66
-0.01;-0.62;0.63
0.01;-0.54;0.59
-0.00;-0.51;0.66
-0.02;-0.45;0.69
-0.07;-0.35;0.74
-0.09;-0.33;0.83
-0.10;-0.26;0.92
-0.10;-0.26;0.96
-0.13;-0.25;0.97
-0.13;-0.26;0.98
-0.10;-0.27;0.96
-0.06;-0.31;0.93
-0.10;-0.32;0.93
-0.14;-0.27;0.94
-0.14;-0.25;0.94
-0.11;-0.30;0.94
-0.07;-0.33;0.93
-0.08;-0.35;0.91
-0.13;-0.31;0.91
-0.13;-0.23;0.92
-0.14;-0.19;0.94
-0.15;-0.13;0.97
-0.15;-0.13;0.99
-0.18;-0.12;1.01
-0.17;-0.09;1.03
-0.14;-0.07;1.02
0.03;0.19;1.97
-0.22;0.10;1.36
-0.24;-0.06;0.92
-0.16;-0.11;1.08
-0.15;-0.12;1.12
-0.12;-0.07;1.07
-0.07;0.02;1.01
-0.04;-0.04;0.96
-0.06;-0.03;0.96
-0.03;-0.01;1.00
0.02;-0.05;0.99
-0.09;0.08;0.97
-0.01;-0.07;1.02
-0.07;0.01;1.08
0.05;-0.03;0.99
0.05;-0.04;0.95
0.05;-0.06;0.96
0.03;-0.07;0.98
-0.03;-0.02;1.10
0.12;0.06;1.03
0.03;-0.01;1.00
0.01;-0.04;0.99
0.02;-0.05;0.99
0.06;-0.00;1.01
0.04;-0.02;0.99
0.01;-0.02;1.00
0.02;-0.02;1.00
0.00;-0.03;1.01
0.04;-0.01;1.00
0.03;-0.02;1.00
0.05;-0.03;0.98
0.07;-0.02;0.97
-0.13;0.01;1.01
0.03;-0.04;0.95
0.00;-0.02;1.00
0.02;-0.01;1.01
0.01;-0.02;1.00
0.01;-0.02;1.00
0.01;-0.02;1.00
0.00;-0.01;1.00
0.00;-0.01;1.00
0.01;-0.02;1.00
0.01;-0.02;1.00
0.01;-0.02;1.00
0.01;-0.02;1.00
0.01;-0.02;1.00
-0.01;-0.04;1.01
0.04;-0.01;0.99
0.01;-0.04;0.99
0.01;0.01;1.02
0.04;-0.03;0.99
-0.03;-0.01;1.02
0.03;-0.03;0.98
-0.01;-0.03;1.00
0.04;-0.00;1.00
0.02;-0.04;0.99
-0.00;0.01;1.02
0.04;-0.02;0.99
-0.03;-0.01;1.02
0.01;0.01;1.02
-0.00;-0.04;1.00
-0.02;-0.00;1.02
0.03;-0.04;0.98
-0.02;-0.03;1.01
0.04;-0.01;1.00
-0.01;-0.02;1.02
0.00;0.01;1.02
0.01;-0.04;0.99
-0.03;-0.01;1.02
0.04;-0.03;0.98
-0.01;-0.03;1.00
0.03;-0.00;1.00
0.03;-0.04;0.98
-0.01;0.01;1.02
0.04;-0.02;0.99
-0.01;0.00;1.01
0.01;-0.03;1.00
0.01;-0.02;1.00
0.01;-0.02;1.00
0.01;-0.02;1.00
0.01;-0.02;1.00
0.01;-0.02;1.00
0.01;-0.02;1.00
0.01;-0.02;1.00
0.01;-0.02;1.00
0.01;-0.02;1.00
0.01;-0.02;1.00
0.01;-0.02;1.00
0.01;-0.02;1.00
0.01;-0.02;1.00
0.02;-0.04;0.98
-0.03;-0.01;1.02
0.04;-0.03;0.99
-0.03;-0.00;1.03
0.03;0.00;1.01
-0.01;-0.03;1.00
-0.02;0.01;1.03
0.02;-0.04;0.99
-0.03;-0.02;1.01
0.04;-0.02;0.99
0.01;-0.04;0.99
0.02;0.01;1.02
0.04;-0.03;0.98
-0.02;0.00;1.03
0.03;-0.00;1.01
-0.02;-0.03;1.01
0.03;-0.02;1.00
0.02;-0.04;0.99
0.00;0.01;1.02
0.04;-0.03;0.99
-0.02;-0.00;1.02
0.03;0.01;1.01
-0.01;-0.03;1.00
-0.02;0.00;1.03
0.02;-0.04;0.98
-0.02;-0.02;1.01
0.04;-0.02;0.99
0.01;-0.04;0.99
0.01;0.01;1.02
-0.01;0.00;1.01
0.01;-0.03;1.00
0.01;-0.02;1.00
0.01;-0.02;1.00
0.00;-0.02;1.00
0.00;-0.02;1.00
0.01;-0.02;1.00
0.01;-0.02;1.00
0.01;-0.02;1.00
0.01;-0.02;1.00
0.01;-0.02;1.00
0.00;-0.02;1.00
0.01;-0.02;1.00
0.01;-0.02;1.00
0.05;-0.03;0.98
-0.02;0.01;1.03
0.03;-0.01;1.00
-0.02;-0.03;1.01
-0.01;0.01;1.03
0.01;-0.04;0.99
-0.03;-0.01;1.02
0.04;-0.03;0.99
-0.00;-0.04;0.99
0.03;0.00;1.01
0.04;-0.04;0.98
-0.02;0.01;1.03
0.04;-0.04;0.98
-0.03;-0.02;1.01
0.04;-0.02;0.99
0.01;-0.04;0.99
0.02;0.01;1.02
0.04;-0.03;0.98
-0.03;0.00;1.03
0.03;-0.00;1.01
-0.02;-0.03;1.01
-0.01;0.01;1.03
0.02;-0.04;0.98
-0.03;-0.02;1.01
0.04;-0.02;1.00
0.00;-0.04;1.02
0.02;0.01;1.01
-0.01;-0.04;1.00
-0.02;0.00;1.02
-0.02;-0.03;1.00
0.00;0.00;1.01
0.01;-0.01;1.00
0.01;-0.02;1.00
0.01;-0.02;1.00
0.01;-0.02;1.00
0.01;-0.02;1.00
0.01;-0.02;1.00
0.01;-0.02;1.00
0.01;-0.02;1.00
0.01;-0.02;1.00
0.01;-0.02;1.00
0.01;-0.02;1.00
0.01;-0.02;1.00
0.01;-0.02;1.00
-0.04;-0.01;1.02
0.01;0.01;1.02
-0.00;-0.05;1.00
-0.02;-0.01;1.02
0.04;-0.03;0.99
-0.01;-0.04;1.01
0.04;0.00;1.00
0.02;-0.04;0.99
-0.00;0.01;1.01
0.01;-0.05;0.99
-0.03;-0.02;1.02
0.04;-0.02;1.00
-0.01;-0.05;1.00
0.03;0.01;1.00
0.03;-0.03;1.00
-0.01;0.01;1.01
0.04;0.00;1.00
-0.03;-0.03;1.02
0.00;0.01;1.01
0.00;-0.05;0.99
-0.03;-0.01;1.02
0.04;-0.03;1.00
-0.01;-0.00;1.02
0.03;0.01;1.00
-0.02;-0.03;1.01
-0.01;0.01;1.01
0.01;-0.04;0.99
-0.02;-0.02;1.02
0.04;-0.02;1.00
-0.01;-0.02;1.00
0.01;-0.02;1.00
0.01;-0.01;1.00
0.01;-0.02;1.00
0.01;-0.02;1.00
0.01;-0.02;1.00
0.01;-0.02;1.00
0.01;-0.02;1.00
0.01;-0.02;1.00
0.01;-0.02;1.00
0.01;-0.02;1.00
0.01;-0.02;1.00
0.01;-0.02;1.00
0.01;-0.02;1.00
-0.04;-0.02;1.03
0.01;0.01;1.01
-0.00;-0.05;1.00
-0.02;-0.01;1.02
0.04;-0.03;1.00
-0.01;0.03;1.02
0.04;0.00;1.00
-0.03;-0.03;1.02
-0.00;0.01;1.01
0.00;-0.04;1.00
-0.02;-0.02;1.02
0.04;-0.02;1.00
-0.01;-0.04;1.00
0.03;0.00;1.00
0.03;-0.03;1.00
-0.01;-0.00;1.02
0.04;-0.00;1.00
-0.02;-0.03;1.02
0.01;0.01;0.97
-0.00;-0.04;1.00
0.02;0.00;1.00
0.04;-0.02;1.00
-0.02;-0.01;1.02
0.03;0.00;1.00
-0.02;-0.03;1.01
-0.00;0.00;1.01
0.01;-0.04;1.00
-0.03;-0.02;1.02
0.04;-0.01;1.00
-0.01;-0.04;1.00
0.01;-0.03;1.00
0.00;-0.01;1.00
0.01;-0.02;1.00
0.01;-0.02;1.00
0.01;-0.02;1.00
0.01;-0.02;1.00
0.01;-0.02;1.00
0.01;-0.02;1.00
0.01;-0.02;1.00
0.01;-0.02;1.00
0.01;-0.02;1.00
0.01;-0.02;1.00
0.01;-0.02;1.00
-0.01;-0.03;1.00
-0.04;-0.01;1.02
0.04;-0.03;0.99
-0.02;-0.00;1.02
0.04;-0.00;1.00
-0.03;-0.03;1.02
-0.00;0.00;1.01
0.00;-0.04;0.99
-0.03;-0.02;1.02
0.04;-0.02;1.00
-0.01;-0.04;1.00
0.03;0.00;1.00
0.03;-0.03;0.99
-0.01;0.00;1.01
0.04;-0.00;1.00
-0.03;-0.02;1.02
0.04;-0.01;1.00
-0.00;-0.04;1.00
0.02;0.00;1.00
0.04;-0.03;1.00
-0.02;-0.01;1.02
0.04;0.00;1.00
-0.02;-0.03;1.02
-0.00;0.00;1.01
0.01;-0.04;0.99
-0.03;-0.02;1.02
0.04;-0.02;1.00
-0.01;-0.04;1.00
0.03;0.00;1.00
0.03;-0.03;1.01
0.01;-0.01;1.01
0.00;-0.01;1.00
0.01;-0.02;1.00
0.01;-0.02;1.00
0.01;-0.02;1.00
0.01;-0.02;1.00
0.01;-0.02;1.00
0.01;-0.02;1.00
0.01;-0.02;1.00
0.01;-0.02;1.00
0.01;-0.02;1.00
0.01;-0.02;1.00
0.01;-0.02;1.00
0.01;-0.02;1.00
0.00;0.01;1.01
0.05;-0.02;0.99
-0.02;-0.01;1.02
0.02;0.00;1.00
-0.02;-0.04;1.00
-0.02;-0.00;1.02
0.02;-0.03;0.99
-0.03;-0.03;1.02
0.04;-0.01;1.00
0.01;-0.04;1.00
0.01;0.00;1.00
0.04;-0.02;1.00
-0.02;-0.01;1.02
0.03;-0.03;1.00
-0.02;-0.03;1.01
0.04;-0.00;1.00
0.02;-0.03;1.00
0.00;0.00;1.01
0.04;-0.01;1.00
-0.03;-0.02;1.02
0.02;0.00;1.00
-0.01;-0.04;1.00
-0.02;-0.01;1.02
0.03;-0.03;0.99
-0.02;-0.03;1.01
0.04;-0.00;1.00
-0.03;-0.02;1.02
0.01;0.00;1.01
-0.00;-0.04;1.00
-0.01;-0.01;1.02
0.00;-0.02;1.00
0.01;-0.01;1.00
0.01;-0.01;1.00
0.01;-0.02;1.00
0.01;-0.02;1.00
0.01;-0.02;1.00
0.01;-0.02;1.00
0.01;-0.02;1.00
0.01;-0.02;1.00
0.01;-0.02;1.00
0.01;-0.02;1.00
0.01;-0.02;1.00
0.01;-0.02;1.00
0.05;0.00;1.00
0.03;-0.00;1.00
-0.02;-0.01;1.02
0.03;0.00;1.00
-0.02;-0.03;1.01
-0.02;-0.00;1.02
0.02;-0.03;0.99
-0.03;-0.03;1.02
0.05;-0.01;1.00
0.00;-0.02;1.02
0.02;0.00;1.00
-0.01;-0.04;1.00
-0.02;-0.01;1.02
0.03;-0.03;0.99
-0.02;-0.03;1.01
0.04;-0.00;1.00
0.01;-0.04;0.99
0.01;0.00;1.00
0.05;-0.02;1.00
-0.03;-0.01;1.02
0.02;0.00;1.00
-0.02;-0.04;1.01
-0.02;0.03;1.00
0.03;-0.03;0.99
-0.00;0.00;1.01
0.04;-0.01;1.00
-0.03;-0.02;1.02
0.01;0.00;1.00
-0.01;-0.04;1.00
-0.02;-0.01;1.02
-0.00;-0.02;1.00
0.01;-0.01;1.01
0.01;-0.01;1.00
0.01;-0.02;1.00
0.01;-0.02;1.00
0.01;-0.02;1.00
0.01;-0.02;1.00
0.01;-0.02;1.00
0.01;-0.02;1.00
0.01;-0.02;1.00
0.01;-0.02;1.00
0.01;-0.02;1.00
0.01;-0.02;1.00
0.01;-0.02;1.00
0.03;-0.04;0.99
-0.00;0.00;1.01
0.04;-0.01;1.00
-0.03;-0.02;1.02
0.02;0.00;1.00
-0.01;-0.04;1.00
0.03;0.00;1.00
0.03;-0.03;1.00
-0.01;-0.00;1.02
0.04;-0.00;1.00
-0.03;-0.02;1.02
0.00;0.00;1.01
-0.00;-0.04;0.99
-0.03;-0.02;1.02
0.04;-0.02;1.00
-0.02;-0.04;1.00
0.03;0.00;1.00
0.03;-0.03;0.99
-0.00;0.00;1.01
0.01;-0.04;0.99
-0.03;-0.02;1.02
0.04;-0.01;1.00
-0.01;-0.04;1.00
0.03;0.00;1.00
0.04;-0.02;1.00
-0.01;-0.00;1.02
0.04;0.00;1.00
-0.03;-0.03;1.02
0.00;0.00;1.01
-0.01;-0.02;1.00
0.01;-0.01;1.00
0.00;-0.01;1.00
0.05;-0.02;0.96
0.04;-0.02;0.98
-0.01;0.02;1.01
-0.07;0.07;1.01
-0.10;0.03;1.01
-0.15;0.02;1.01
-0.08;-0.05;1.01
-0.04;-0.07;1.03
0.44;-0.10;1.04
0.10;0.07;1.12
-0.14;0.06;0.98
-0.22;0.04;0.81
0.01;0.03;0.99
0.06;0.01;0.99
0.03;0.03;0.95
-0.04;0.00;1.01
-0.04;0.14;0.67
-0.11;0.10;1.09
-0.13;0.01;1.19
0.08;-0.29;0.95
-0.07;-0.24;1.00
0.28;-0.12;0.99
0.02;-0.15;1.04
-0.09;1.15;0.99
-0.06;0.02;1.05
-0.03;0.06;1.00
-0.01;0.02;0.99
-0.03;0.02;1.06
-0.05;0.00;1.05
-0.10;0.01;1.09
-0.10;0.02;1.00
-0.06;0.01;0.98
-0.01;0.01;0.99
-0.01;0.02;0.97
-0.01;-0.01;1.05
-0.02;-0.10;1.09
-0.05;-0.06;0.96
0.03;-0.52;1.11
-0.04;-0.04;0.92
-0.04;-0.09;0.96
-0.10;-0.12;0.96
-0.13;-0.20;0.96
-0.13;-0.16;0.97
-0.18;1.03;1.13
-0.30;0.35;0.82
-0.08;-0.04;1.00
-0.07;-0.01;1.00
0.05;-0.02;1.08
0.06;-0.06;1.00
-0.09;-0.04;1.20
-0.13;-0.01;1.12
0.02;0.04;0.91
0.03;0.05;0.94
0.05;-0.02;0.92
0.02;0.00;0.87
-0.03;0.00;0.92
-0.03;-0.06;0.91
0.05;-0.02;0.99
0.02;0.04;1.15
0.02;0.04;1.00
0.01;-0.01;1.01
0.01;-0.04;0.99
-0.04;-0.05;0.98
-0.05;-0.02;1.00
-0.08;0.01;0.97
-0.10;0.01;1.00
-0.06;-0.00;0.98
-0.11;-0.05;1.02
-0.08;-0.05;1.01
-0.06;-0.07;0.98
-0.06;-0.07;0.99
-0.03;-0.06;0.95
-0.05;-0.07;0.97
-0.04;-0.09;0.96
-0.09;-0.08;0.95
-0.10;-0.05;1.03
-0.06;-0.04;1.01
-0.10;-0.05;1.02
-0.06;-0.02;1.01
-0.04;0.06;1.02
-0.07;0.15;0.99
-0.07;0.18;1.00
-0.05;0.17;1.02
-0.06;0.17;0.99
-0.03;0.20;0.99
-0.01;0.19;0.99
0.06;0.12;0.99
0.06;0.09;0.99
0.01;0.00;0.99
0.02;-0.05;1.02
-0.03;-0.11;1.01
-0.03;-0.13;1.00
-0.01;-0.09;0.65
-0.00;-0.40;1.01
0.01;-0.19;1.03
0.01;-0.12;1.02
0.02;-0.10;1.00
-0.12;0.04;1.10
-0.17;0.06;1.21
-0.03;0.04;0.91
0.05;0.01;0.91
0.01;-0.07;0.90
0.03;-0.08;0.88
0.38;-0.05;1.28
0.06;0.13;1.84
0.02;0.04;0.87
0.15;0.02;1.01
0.04;0.02;1.01
0.05;-0.00;0.91
0.07;0.02;0.88
-0.05;-0.00;1.02
-0.13;-0.08;1.46
0.07;-0.05;1.02
0.00;0.01;1.03
0.01;-0.01;0.99
0.01;-0.02;1.02
0.03;-0.00;0.98
0.04;-0.01;0.99
-0.01;-0.01;1.01
-0.09;-0.01;0.99
-0.11;0.00;1.05
0.01;0.00;0.98
-0.00;-0.02;1.01
0.01;0.01;1.00
0.03;-0.03;1.00
-0.04;0.01;1.02
0.00;0.02;0.98
-0.02;-0.02;1.02
-0.02;-0.00;1.00
-0.25;-0.05;0.92
-0.05;-0.12;1.02
-0.09;0.02;1.18
0.02;-0.03;1.11
0.09;-0.05;0.98
0.04;0.01;0.96
0.07;0.03;0.95
0.12;0.01;0.96
0.14;-0.01;0.98
0.14;-0.03;0.97
0.14;-0.04;0.99
0.17;-0.04;0.96
0.17;-0.02;0.96
0.20;-0.03;0.99
0.19;-0.01;0.98
0.19;-0.03;0.93
0.25;-0.02;0.94
0.11;-0.05;0.99
0.20;-0.00;0.97
0.15;-0.02;0.96
0.15;-0.02;0.90
0.13;-0.02;0.89
0.05;-0.03;0.95
0.01;-0.02;0.95
-0.01;-0.01;1.09
-0.06;-0.00;1.33
0.05;-0.02;1.00
-0.07;0.01;0.98
0.04;-0.01;0.99
-0.00;-0.03;1.00
-0.03;0.00;1.00
-0.03;-0.03;1.00
-0.06;-0.00;1.02
-0.07;0.03;0.99
-0.10;0.03;1.01
-0.04;0.01;0.98
-0.05;-0.01;0.98
-0.04;0.01;0.99
-0.03;-0.00;0.96
-0.05;-0.00;1.00
-0.02;0.00;0.97
0.02;0.04;1.30
-0.03;-0.01;1.07
-0.02;-0.02;1.02
0.04;-0.03;1.08
0.04;-0.05;1.03
-0.02;-0.01;1.03
0.01;-0.01;0.99
0.03;-0.02;0.99
0.02;-0.02;1.00
-0.00;-0.02;1.05
-0.01;-0.01;1.01
0.01;-0.02;1.01
0.01;-0.02;1.01
-0.04;-0.01;1.03
-0.03;0.00;1.01
-0.03;-0.01;0.98
-0.04;-0.04;0.98
-0.03;-0.04;0.99
-0.02;-0.03;0.94
-0.05;-0.02;0.97
-0.00;-0.02;0.95
-0.05;-0.03;0.97
-0.09;0.01;1.02
-0.09;0.02;1.00
-0.10;0.01;1.02
-0.06;0.01;0.99
-0.06;-0.02;0.99
-0.03;-0.02;0.98
-0.00;-0.01;0.98
-0.01;0.00;0.99
-0.02;0.04;1.34
-0.05;-0.02;1.06
-0.01;-0.01;1.01
-0.06;-0.06;1.03
-0.04;-0.07;1.02
-0.11;0.01;1.03
-0.10;0.07;1.16
0.02;-0.02;0.99
-0.01;-0.03;0.98
-0.03;-0.02;0.98
-0.00;-0.03;0.91
-0.04;-0.03;0.95
0.01;-0.04;0.93
-0.03;-0.03;0.96
-0.00;0.01;1.00
0.02;0.13;1.43
-0.11;0.04;1.05
-0.04;0.00;1.02
-0.06;0.00;1.02
-0.07;0.00;1.01
0.01;-0.03;1.01
0.00;-0.02;1.00
0.05;-0.02;1.00
0.03;-0.01;0.99
0.08;-0.01;1.01
0.05;0.01;1.00
0.08;-0.02;0.94
-0.01;0.02;1.08
-0.01;0.01;0.87
-0.03;-0.04;0.90
-0.06;-0.04;0.92
-0.08;-0.02;1.09
-0.05;-0.02;1.05
0.01;-0.01;1.08
0.00;-0.04;0.98
0.03;-0.02;0.96
0.03;-0.02;0.94
0.01;-0.03;0.95
0.08;0.02;0.98
-0.02;0.02;1.05
-0.02;0.00;0.96
-0.11;0.00;1.06
-0.18;0.06;1.11
-0.07;-0.01;1.02
-0.08;-0.10;1.09
-0.03;-0.03;1.18
0.00;-0.05;0.97
0.02;-0.04;0.95
0.06;-0.02;0.89
0.11;-0.02;1.07
0.03;-0.06;0.78
0.04;0.09;1.14
-0.02;0.05;0.98
-0.20;0.10;0.94
-0.19;0.06;1.25
-0.12;0.02;1.05
-0.07;0.09;1.27
0.03;-0.06;0.92
0.07;-0.09;0.90
0.13;-0.10;0.86
0.15;-0.08;0.87
0.08;-0.04;0.69
-0.13;0.12;0.16
-0.09;-0.02;1.04
-0.24;0.09;1.14
-0.14;0.06;1.06
0.01;0.05;1.26
0.05;-0.07;1.00
0.09;-0.15;0.86
0.10;-0.14;0.92
-0.07;-0.12;0.94
0.02;0.13;1.27
-0.13;0.06;1.13
-0.17;0.12;0.99
-0.04;0.06;0.78
-0.11;0.05;0.92
0.03;-0.05;1.09
0.07;-0.07;1.01
0.04;-0.12;1.01
-0.01;0.03;0.97
-0.03;0.03;1.01
0.01;0.04;0.99
-0.02;0.02;1.00
0.01;-0.01;1.01
-0.01;-0.01;0.98
-0.04;-0.08;1.04
-0.11;-0.08;1.04
-0.08;0.01;1.04
-0.05;0.02;0.97
0.17;-0.02;0.88
0.07;-0.08;0.99
0.09;-0.03;0.86
-0.28;0.23;2.29
0.02;-0.03;1.27
-0.17;0.02;1.01
-0.27;0.10;1.08
-0.11;0.09;1.01
0.03;-0.01;0.97
0.12;-0.08;0.84
0.17;-0.12;0.84
0.10;-0.14;1.20
0.09;-0.12;1.00
-0.07;-0.02;0.66
-0.48;-0.02;2.16
-0.11;0.03;1.00
-0.07;0.03;1.11
0.06;-0.02;0.97
0.06;-0.11;0.94
0.07;-0.10;0.94
0.00;0.04;1.03
-0.04;0.05;1.04
-0.11;0.01;1.01
-0.04;-0.01;1.01
-0.15;0.11;0.99
-0.04;0.08;1.01
0.09;-0.02;0.97
0.10;-0.09;0.98
0.10;-0.13;0.93
0.05;-0.02;1.04
0.03;-0.02;1.03
-0.12;0.01;1.01
-0.10;-0.02;1.06
-0.07;0.05;1.09
-0.03;-0.02;1.00
0.02;-0.05;0.95
-0.01;-0.02;0.93
0.04;-0.03;0.97
0.10;0.06;1.28
-0.06;0.03;1.05
-0.05;0.02;1.02
-0.03;-0.02;0.99
-0.05;0.01;1.00
-0.02;0.02;1.00
0.07;-0.09;1.02
0.07;-0.03;0.98
0.06;-0.00;1.03
0.05;-0.01;1.02
-0.02;-0.04;1.02
-0.09;-0.02;0.95
-0.00;-0.01;1.00
-0.03;-0.03;1.02
-0.03;-0.02;1.02
0.01;-0.02;0.97
0.02;0.00;1.02
-0.01;0.03;0.97
-0.02;0.02;1.02
0.03;-0.03;0.97
-0.08;-0.02;1.09
0.03;-0.03;0.98
0.03;-0.02;1.02
0.04;-0.01;0.99
0.09;-0.02;1.01
0.00;0.01;0.92
-0.00;-0.03;0.90
-0.09;-0.06;0.93
-0.10;0.00;1.04
0.12;0.00;0.93
0.18;-0.07;0.88
0.07;-0.07;0.84
0.00;-0.01;1.11
-0.03;-0.03;0.99
-0.16;0.04;0.84
-0.20;0.08;0.75
-0.09;-0.04;1.10
-0.08;0.06;1.24
0.12;-0.08;0.86
0.13;-0.12;0.87
0.11;-0.10;0.92
0.11;-0.09;0.98
-0.04;0.02;0.84
0.01;0.03;0.86
-0.12;0.16;1.37
-0.08;0.03;1.00
-0.06;0.01;1.01
-0.01;-0.06;1.00
-0.04;-0.05;0.98
-0.08;0.00;1.01
-0.06;0.02;0.98
-0.07;-0.02;1.01
-0.04;0.00;1.04
0.03;0.00;0.99
0.03;0.03;1.02
0.05;0.00;0.99
0.02;-0.03;0.99
-0.03;-0.01;1.01
-0.13;0.00;0.99
-0.12;0.02;1.01
-0.13;0.06;0.99
-0.11;0.04;1.05
-0.19;0.02;1.00
-0.08;-0.02;1.01
0.06;-0.06;0.96
0.11;-0.08;1.04
0.07;-0.06;1.01
0.25;0.17;0.92
-0.04;-0.08;1.12
-0.02;-0.07;0.82
-0.16;0.28;2.77
-0.03;0.06;1.03
-0.10;0.08;1.18
-0.01;0.01;0.95
0.01;-0.02;0.92
0.08;-0.09;0.90
0.09;-0.07;0.91
0.00;-0.11;0.95
-0.10;0.03;1.03
-0.12;0.03;1.08
-0.15;0.04;1.05
-0.17;0.08;1.02
-0.06;0.03;1.09
-0.02;-0.04;0.97
-0.01;-0.04;0.96
0.04;-0.03;0.97
-0.03;-0.04;1.00
-0.03;-0.02;1.00
-0.06;0.04;1.03
-0.07;0.01;1.07
-0.03;0.00;1.00
-0.03;-0.03;0.99
-0.03;-0.02;0.97
0.02;-0.03;0.97
-0.02;-0.03;1.00
-0.01;-0.02;0.98
-0.06;-0.00;1.01
-0.08;0.03;1.04
-0.12;0.05;1.08
-0.16;0.08;1.08
-0.09;0.05;1.01
0.02;-0.04;0.92
0.10;-0.09;0.86
0.09;-0.21;1.18
0.08;-0.13;0.92
-0.17;-0.05;0.38
-0.31;0.00;1.80
-0.12;0.09;1.07
-0.18;0.19;1.47
-0.08;0.05;1.06
0.08;-0.04;0.89
0.12;-0.06;0.83
0.22;-0.12;0.85
0.18;-0.11;0.87
0.15;0.28;0.57
-0.32;0.15;2.79
-0.14;0.06;0.81
-0.18;0.03;0.97
-0.23;0.10;1.08
-0.08;0.04;1.11
-0.00;-0.06;0.86
0.03;-0.05;0.89
0.13;-0.07;1.03
0.04;-0.05;0.87
-0.06;0.04;0.49
0.04;-0.07;0.95
-0.11;0.02;1.04
-0.02;0.00;1.03
0.00;-0.05;0.94
0.04;-0.03;0.97
0.04;-0.07;0.92
-0.03;0.05;1.04
-0.03;0.07;1.00
-0.15;0.05;1.10
-0.08;0.05;1.04
-0.05;0.07;0.99
0.14;-0.01;0.92
0.15;-0.04;0.88
0.05;-0.11;1.21
0.10;-0.13;1.01
0.14;0.04;0.75
-0.35;0.17;2.62
-0.05;0.01;1.05
-0.20;0.03;1.05
-0.15;0.03;1.02
-0.17;0.02;1.05
-0.06;-0.01;1.00
-0.08;-0.01;0.89
0.12;-0.04;0.92
0.02;-0.09;1.05
0.14;-0.04;1.01
0.05;-0.04;0.82
-0.05;-0.11;0.94
-0.11;0.25;1.60
-0.08;0.05;1.15
-0.13;0.04;1.01
-0.10;0.06;1.11
-0.05;-0.01;0.97
-0.02;-0.03;0.98
0.01;-0.07;0.96
0.01;-0.03;1.00
0.07;-0.04;0.95
0.02;-0.01;0.88
-0.13;0.19;1.54
-0.08;0.00;1.07
-0.08;0.03;1.01
-0.03;-0.02;1.03
-0.04;-0.02;1.01
0.01;-0.04;0.94
-0.01;-0.04;0.98
0.01;0.00;0.99
0.05;-0.06;0.94
0.00;0.03;1.01
0.00;0.01;0.99
0.01;-0.01;1.02
-0.08;0.02;0.99
-0.13;0.00;1.04
-0.17;0.09;1.13
-0.11;0.05;1.03
-0.06;0.00;0.98
-0.02;-0.01;0.94
0.07;-0.06;0.95
0.14;-0.20;1.08
0.07;-0.02;0.95
0.07;-0.01;0.94
-0.26;-0.07;0.67
-0.03;0.13;0.95
-0.08;0.03;0.98
-0.15;0.04;1.04
-0.09;0.04;1.13
0.01;-0.02;0.94
-0.00;-0.08;1.03
0.08;-0.04;0.79
0.12;-0.18;1.22
0.06;-0.04;0.98
0.04;-0.02;0.91
-0.10;-0.11;0.92
-0.25;-0.17;0.85
-0.05;0.12;0.96
-0.13;0.07;1.11
-0.09;0.06;0.96
-0.00;-0.11;0.98
0.06;-0.08;0.96
0.05;-0.04;0.99
0.01;-0.04;1.00
0.08;-0.06;0.93
0.05;-0.05;0.89
-0.03;0.11;1.03
-0.06;0.08;1.02
-0.06;-0.00;1.03
-0.06;-0.01;1.01
-0.08;0.00;1.01
-0.02;-0.00;1.01
-0.05;0.03;0.99
-0.00;-0.00;1.01
0.04;-0.03;0.98
-0.02;-0.03;0.99
-0.00;-0.02;0.98
0.04;0.00;1.14
0.10;-0.02;1.04
0.05;-0.01;0.99
0.01;-0.02;1.01
-0.21;0.00;1.02
-0.10;-0.02;1.01
-0.29;0.22;1.09
-0.02;-0.03;0.92
0.04;-0.06;0.93
0.05;-0.04;0.92
0.03;-0.02;0.94
0.08;-0.03;1.00
0.02;0.03;1.34
-0.10;-0.01;1.06
-0.09;0.00;1.01
-0.12;-0.01;1.04
-0.13;0.06;1.10
-0.04;-0.01;0.96
-0.03;-0.01;0.98
0.06;-0.04;0.97
-0.02;-0.04;1.00
0.03;-0.05;0.98
-0.02;0.04;1.15
0.02;0.01;1.02
0.03;-0.00;1.01
0.02;-0.01;1.01
-0.05;-0.10;1.05
-0.09;-0.09;1.03
-0.16;0.08;1.11
-0.13;0.03;1.00
0.01;0.02;0.83
0.08;0.03;0.85
0.09;-0.02;0.93
0.15;-0.04;1.06
-0.08;0.01;0.95
-0.14;0.01;0.67
-0.06;0.00;1.14
-0.08;-0.05;1.01
-0.10;-0.02;1.11
-0.06;0.01;0.94
-0.01;-0.01;0.95
0.01;-0.01;0.98
0.03;-0.05;1.03
0.04;0.02;0.98
0.05;-0.02;0.96
-0.02;0.05;1.31
0.03;-0.01;1.06
-0.05;-0.03;1.01
-0.09;0.04;1.01
-0.09;0.07;1.04
-0.04;0.00;1.03
0.00;-0.02;0.99
0.02;-0.06;0.96
0.02;-0.03;0.99
0.06;-0.08;0.95
0.00;-0.01;0.99
-0.05;0.05;0.98
-0.15;0.02;1.01
-0.04;0.02;0.98
0.02;-0.04;1.04
-0.05;-0.03;1.01
-0.06;0.01;0.96
-0.07;0.02;0.96
0.04;0.02;0.99
0.03;-0.02;0.99
0.00;-0.00;1.09
-0.05;-0.00;1.02
-0.08;0.00;1.01
-0.06;0.00;1.01
-0.11;0.08;1.08
-0.06;0.03;1.02
0.04;-0.04;0.97
0.04;-0.06;0.94
0.08;-0.08;0.93
-0.05;0.09;1.17
0.02;0.03;1.04
-0.06;-0.03;1.02
-0.08;-0.06;1.01
-0.05;-0.02;1.03
-0.07;0.00;1.02
-0.05;0.00;0.97
0.03;-0.01;1.02
-0.00;-0.00;0.98
-0.01;-0.00;1.02
0.03;0.00;0.99
0.02;-0.01;0.99
-0.00;-0.01;1.02
-0.00;-0.04;1.01
-0.05;-0.05;1.06
-0.06;0.04;1.16
-0.03;-0.03;1.02
0.00;-0.05;0.94
0.04;-0.05;0.92
0.00;0.02;0.96
0.02;0.06;0.94
0.03;0.10;1.17
0.02;0.03;1.00
-0.08;-0.03;1.02
-0.11;-0.06;1.04
-0.08;0.02;0.99
-0.05;0.02;1.00
0.03;-0.05;0.97
-0.02;-0.03;0.97
-0.01;0.01;0.97
0.09;0.02;1.23
0.04;-0.02;1.05
0.01;0.02;0.99
0.00;-0.00;1.02
-0.03;-0.02;1.01
-0.04;-0.05;1.01
-0.11;0.01;1.02
-0.08;-0.00;1.04
0.02;-0.01;0.99
0.02;-0.04;0.96
0.02;-0.01;0.93
0.04;-0.04;0.96
0.05;-0.05;0.98
0.03;0.03;1.22
-0.03;0.01;1.04
-0.08;0.01;1.02
-0.05;0.00;1.01
-0.08;0.00;1.00
-0.05;-0.00;1.03
-0.01;0.02;1.05
-0.02;-0.01;1.03
0.01;-0.03;1.00
0.05;-0.03;0.94
0.04;-0.04;0.97
0.04;-0.03;0.97
0.01;-0.02;1.00
-0.00;0.02;1.00
-0.05;0.05;0.99
-0.12;0.02;1.04
-0.08;0.01;1.00
-0.10;0.04;1.06
-0.06;0.01;1.02
-0.04;-0.03;0.95
-0.02;-0.04;0.97
0.00;-0.04;0.96
-0.02;-0.04;0.97
0.04;-0.00;0.97
0.01;-0.02;1.01
0.01;-0.01;1.02
0.01;-0.01;0.96
-0.04;-0.05;1.03
-0.04;-0.01;0.99
-0.11;-0.06;1.03
-0.04;0.05;1.08
-0.00;0.01;0.98
0.02;0.02;0.99
0.04;0.04;0.96
0.04;-0.03;0.97
0.03;-0.03;0.98
-0.05;-0.00;1.00
-0.07;-0.00;1.03
-0.09;0.01;1.05
-0.11;0.03;1.03
-0.08;0.02;1.02
-0.06;0.02;1.01
-0.03;0.01;0.99
0.05;-0.03;0.98
0.05;-0.07;0.96
0.07;-0.03;0.98
0.04;-0.02;0.99
-0.01;0.00;1.03
-0.06;0.02;1.05
-0.09;0.02;1.05
-0.13;0.03;1.00
-0.01;-0.00;0.97
-0.04;-0.05;0.96
-0.03;-0.03;0.98
0.02;-0.04;0.96
0.01;-0.03;1.00
-0.01;0.00;1.00
-0.05;-0.01;1.04
-0.04;0.02;1.00
-0.12;0.02;1.01
-0.07;0.08;1.17
-0.02;0.02;0.97
-0.01;-0.05;0.95
0.05;-0.04;0.99
0.00;-0.02;0.98
0.06;-0.05;0.99
0.06;0.01;0.95
0.04;0.00;1.02
0.06;0.01;1.00
-0.01;-0.01;1.03
-0.05;-0.00;1.02
-0.05;-0.05;1.01
-0.17;0.03;1.05
-0.08;0.03;0.99
-0.09;0.00;0.92
0.02;-0.04;0.90
0.04;-0.08;0.89
0.08;-0.13;1.14
0.04;0.16;1.51
0.16;-0.01;1.14
0.01;-0.07;0.90
-0.10;0.01;0.98
-0.08;-0.02;1.00
-0.08;-0.02;1.05
-0.04;-0.01;0.98
0.00;-0.02;0.93
0.06;-0.01;0.97
0.01;-0.07;0.99
0.01;0.11;1.28
0.11;0.05;1.02
-0.04;-0.01;1.02
-0.02;-0.03;1.01
-0.07;0.00;1.03
-0.03;0.03;0.98
-0.06;-0.02;1.08
-0.07;0.01;1.02
-0.05;0.00;0.98
0.02;-0.04;0.96
0.09;-0.06;0.96
0.06;-0.05;0.95
0.08;-0.06;0.90
-0.15;0.17;1.88
0.01;0.05;1.30
-0.11;-0.02;1.00
-0.13;0.02;1.05
-0.09;0.03;1.04
-0.08;-0.01;0.98
-0.01;-0.02;0.98
0.04;-0.07;0.91
0.05;-0.06;1.04
0.07;-0.04;0.97
0.01;-0.03;0.95
-0.03;0.09;0.80
0.00;0.10;1.23
-0.09;0.02;1.09
-0.04;0.03;1.01
-0.05;-0.03;0.99
-0.04;-0.00;1.00
-0.07;0.00;1.00
-0.03;-0.00;1.01
-0.00;-0.01;0.97
0.05;-0.04;1.00
-0.01;-0.08;1.05
0.05;-0.05;0.93
0.02;-0.05;0.90
0.05;0.03;1.02
-0.04;0.03;1.02
-0.08;0.00;1.01
-0.05;0.01;1.01
-0.01;-0.04;1.01
-0.01;-0.00;1.07
0.04;-0.01;0.99
0.02;-0.03;0.96
0.08;-0.03;0.94
0.03;-0.00;0.96
0.02;0.04;0.99
-0.06;0.00;1.02
-0.07;-0.01;0.99
-0.07;-0.02;1.03
-0.08;0.02;1.00
-0.05;-0.00;1.02
-0.05;-0.05;1.05
-0.05;0.06;1.00
0.01;0.01;1.02
0.07;-0.03;0.97
-0.01;-0.02;0.97
-0.00;0.03;1.03
-0.02;0.02;1.01
-0.04;-0.00;1.03
0.00;-0.03;0.99
-0.04;-0.04;1.03
0.02;-0.00;0.99
0.00;0.00;1.01
0.00;-0.00;1.01
0.02;0.00;0.98
-0.01;-0.01;1.02
0.01;0.00;0.99
-0.05;-0.03;1.02
-0.11;0.02;1.00
-0.11;0.01;1.03
-0.14;0.11;1.11
-0.05;0.09;0.97
0.13;-0.02;0.92
0.15;-0.11;0.98
0.01;-0.06;1.01
0.08;-0.01;1.01
-0.04;-0.04;1.02
-0.11;-0.07;1.13
-0.00;-0.02;0.84
-0.07;-0.02;0.93
-0.18;0.16;0.99
0.02;0.03;1.08
-0.07;-0.02;1.02
0.02;-0.03;0.95
0.05;-0.02;0.99
0.03;-0.03;0.97
0.02;-0.02;0.95
-0.09;0.10;1.20
0.08;0.03;0.99
0.01;-0.01;1.00
-0.02;-0.05;1.02
-0.07;-0.02;0.99
-0.07;-0.03;0.99
-0.10;0.10;1.23
-0.02;-0.04;1.00
0.01;-0.04;0.97
0.07;-0.02;0.96
0.05;-0.06;0.97
0.02;0.02;0.91
0.01;0.13;0.99
-0.14;-0.03;1.02
-0.08;0.02;0.99
-0.13;-0.01;1.03
-0.17;0.15;1.10
0.16;0.07;0.76
0.08;-0.13;0.98
0.11;-0.15;0.91
0.08;-0.02;1.04
-0.12;-0.00;1.08
-0.03;-0.07;0.98
-0.06;-0.07;0.90
-0.09;-0.08;0.85
-0.25;-0.25;1.46
0.07;-0.00;1.03
0.01;0.04;0.95
0.08;0.05;0.94
0.08;0.05;0.91
0.08;0.13;1.04
-0.08;-0.04;1.11
-0.01;-0.07;1.02
-0.07;-0.08;0.93
-0.04;-0.00;0.91
-0.11;-0.06;0.96
-0.08;-0.11;0.95
0.03;-0.06;1.07
-0.01;-0.09;1.05
-0.02;0.00;0.92
0.13;0.15;0.81
0.08;-0.01;0.90
0.05;0.10;1.22
-0.10;-0.05;1.07
-0.05;-0.06;0.96
-0.03;-0.03;0.91
0.01;0.02;1.00
-0.08;0.01;0.98
-0.11;-0.08;1.83
0.07;-0.12;1.00
-0.04;0.01;1.00
0.02;0.00;0.98
0.01;0.03;1.03
0.00;-0.00;1.03
-0.01;-0.06;1.01
-0.06;-0.01;1.02
-0.01;-0.02;0.99
-0.04;0.02;1.07
-0.03;-0.01;1.03
-0.08;-0.03;0.98
-0.10;-0.03;1.01
-0.06;0.19;0.98
-0.08;-0.03;1.02
0.05;-0.13;0.98
-0.02;-0.04;1.03
0.03;-0.01;0.95
0.05;-0.02;1.05
0.09;-0.05;1.03
0.06;-0.02;1.00
0.02;0.01;1.01
0.03;-0.01;1.03
-0.03;-0.03;0.99
-0.03;-0.00;0.98
-0.00;-0.02;0.96
-0.03;-0.01;1.01
-0.04;0.00;0.99
-0.09;-0.02;1.01
-0.09;-0.04;1.01
-0.14;-0.00;1.07
-0.11;-0.05;1.08
-0.00;0.14;0.95
0.02;-0.06;0.91
0.07;-0.07;1.02
0.00;-0.04;0.99
0.03;0.01;0.93
0.04;0.17;0.97
0.02;0.05;0.33
0.01;-0.07;0.98
-0.07;-0.10;1.00
-0.04;-0.06;1.01
-0.07;-0.09;1.15
-0.04;-0.07;1.05
-0.11;-0.01;0.93
0.01;-0.00;0.92
0.01;-0.00;0.92
-0.00;-0.04;1.05
-0.07;0.11;1.17
-0.14;-0.02;1.10
0.06;-0.02;0.95
-0.06;-0.04;0.93
-0.08;-0.08;0.84
-0.04;0.17;1.15
0.09;-0.07;1.05
0.14;-0.04;0.98
0.09;-0.01;0.89
0.10;-0.03;0.95
0.04;-0.04;0.97
-0.02;0.01;1.04
-0.11;0.03;0.97
-0.19;-0.03;1.03
-0.09;-0.06;1.04
-0.14;-0.05;1.03
-0.21;-0.01;1.07
0.01;-0.04;0.96
-0.02;-0.01;0.98
0.03;-0.01;0.99
0.08;-0.02;1.01
0.11;-0.08;1.00
0.07;-0.02;0.97
0.04;-0.02;1.00
0.00;-0.01;1.02
0.01;-0.04;1.02
-0.03;-0.06;0.99
-0.01;-0.01;0.93
-0.04;-0.02;0.99
-0.05;-0.02;1.01
-0.11;0.02;1.06
-0.06;0.02;1.04
-0.00;-0.02;0.99
-0.01;-0.02;1.00
-0.03;-0.03;1.00
-0.01;-0.03;0.99
-0.03;-0.01;0.98
-0.03;-0.01;0.99
-0.14;0.00;1.02
-0.07;-0.02;1.03
0.01;-0.01;0.99
-0.03;-0.01;1.02
0.01;-0.01;0.98
0.00;-0.04;1.02
-0.00;-0.02;1.00
-0.00;0.01;1.06
-0.05;0.01;1.04
0.02;0.00;0.99
-0.01;0.01;1.02
-0.01;-0.02;1.00
-0.03;-0.01;1.01
-0.10;0.01;1.09
-0.07;-0.05;1.03
-0.03;-0.03;0.99
0.07;-0.00;0.88
0.09;-0.07;0.90
0.03;0.19;1.01
0.05;0.00;1.02
-0.10;0.02;1.01
-0.08;-0.02;1.02
-0.09;-0.06;1.03
-0.07;-0.02;1.01
-0.09;-0.08;1.06
-0.06;-0.07;1.02
0.03;0.28;0.91
-0.00;-0.01;0.98
0.04;-0.02;0.96
0.02;0.00;1.02
-0.01;0.01;1.02
-0.03;-0.03;1.01
0.01;-0.01;1.00
-0.02;-0.00;1.02
-0.02;-0.00;1.00
-0.02;-0.01;1.03
-0.02;-0.03;1.03
-0.04;-0.03;1.05
-0.07;-0.01;1.08
-0.02;0.00;0.99
0.01;-0.04;0.91
0.05;-0.05;0.90
-0.01;-0.03;0.94
-0.06;-0.02;0.97
-0.12;0.01;1.02
-0.11;0.06;1.12
-0.09;-0.04;1.05
-0.12;-0.02;1.02
-0.15;-0.00;1.07
-0.03;-0.06;1.10
0.02;-0.07;1.01
0.05;0.02;0.96
0.06;-0.04;0.98
0.04;-0.05;0.97
0.04;-0.01;0.99
-0.02;-0.01;1.01
-0.03;0.00;1.02
-0.06;-0.01;0.99
-0.09;-0.01;1.01
-0.02;-0.01;0.99
-0.10;0.06;1.05
0.03;-0.01;1.01
0.03;-0.03;0.97
0.03;-0.03;0.99
0.04;-0.02;1.01
-0.03;-0.01;1.00
-0.04;-0.02;1.02
-0.06;0.00;1.00
-0.04;0.01;1.01
-0.04;-0.09;1.00
-0.09;-0.06;1.00
-0.05;-0.01;0.81
-0.06;-0.02;0.74
-0.03;-0.09;1.18
0.06;-0.04;1.02
0.07;-0.10;0.99
0.06;-0.04;0.97
0.06;-0.00;0.96
0.05;0.04;1.04
0.04;-0.02;1.09
-0.06;0.01;1.05
0.02;-0.01;0.99
-0.03;0.01;0.93
-0.17;0.06;1.24
-0.19;0.15;1.16
-0.05;-0.11;1.03
-0.03;-0.08;0.96
-0.03;-0.05;0.87
0.07;-0.11;0.98
-0.07;-0.02;1.06
-0.11;0.16;1.44
-0.14;0.00;1.09
-0.16;-0.01;1.06
-0.08;-0.01;1.00
-0.13;0.03;1.09
-0.01;-0.02;1.01
0.09;-0.02;0.93
0.10;-0.04;0.99
0.11;0.03;0.90
0.16;0.05;0.99
0.12;0.05;1.00
-0.03;-0.01;1.05
-0.10;-0.08;1.07
-0.06;-0.09;0.99
-0.17;-0.08;1.07
-0.17;-0.03;1.05
-0.20;-0.03;0.95
-0.16;0.05;1.00
-0.12;-0.04;0.97
-0.03;0.03;1.06
0.08;0.32;0.94
0.13;-0.04;1.01
0.19;-0.05;1.00
0.16;0.00;1.04
0.14;0.01;1.03
0.06;-0.00;0.99
-0.02;0.00;1.01
-0.07;0.02;1.16
-0.09;-0.03;1.13
-0.10;-0.01;1.02
-0.04;-0.02;0.90
0.01;-0.06;0.88
-0.01;-0.05;0.93
-0.06;-0.02;0.93
-0.10;0.04;1.01
-0.09;0.03;1.00
-0.08;0.11;1.13
-0.01;0.03;1.04
-0.16;0.07;1.01
-0.14;0.08;1.07
-0.10;-0.13;1.07
-0.10;-0.10;1.06
-0.01;0.05;0.95
0.01;0.04;0.66
0.01;-0.08;1.03
0.02;-0.05;0.97
0.00;-0.03;0.96
0.02;-0.02;0.92
-0.00;0.01;0.74
0.28;-0.22;1.34
-0.04;-0.10;1.20
-0.02;-0.06;0.76
-0.06;-0.06;0.76
-0.02;0.17;1.51
-0.04;0.03;1.16
-0.08;0.02;0.83
-0.04;-0.08;0.94
-0.04;-0.06;0.85
-0.09;-0.07;0.97
-0.08;-0.04;0.97
-0.06;-0.01;1.09
-0.14;-0.10;1.15
-0.05;-0.00;0.98
-0.06;0.04;0.99
-0.02;0.02;0.97
-0.02;0.04;0.98
0.08;0.06;1.07
0.06;0.03;0.99
0.08;-0.00;0.99
0.08;0.00;0.96
0.05;-0.03;1.06
0.02;-0.08;0.99
-0.02;-0.06;1.00
-0.06;-0.01;0.96
-0.05;-0.08;1.07
-0.12;0.00;1.00
-0.20;0.08;1.10
-0.23;-0.07;1.26
-0.23;-0.08;1.10
-0.13;-0.01;0.89
-0.08;-0.10;0.96
0.07;-0.03;0.94
0.06;-0.01;1.06
0.06;0.01;1.01
0.08;0.07;1.02
0.10;0.10;1.00
0.18;0.09;0.85
0.01;0.06;1.03
-0.01;0.02;1.01
-0.05;0.02;1.00
-0.11;-0.03;1.00
-0.16;0.01;0.98
-0.07;-0.06;0.98
-0.08;-0.02;0.91
-0.03;-0.11;0.94
-0.05;-0.05;0.94
-0.09;-0.03;1.01
-0.13;-0.06;1.01
-0.02;-0.01;0.99
-0.05;0.02;1.03
0.03;0.04;0.99
-0.13;0.04;0.99
-0.08;0.04;0.94
-0.14;0.04;0.94
0.07;-0.08;1.15
0.19;-0.08;0.92
0.13;-0.02;0.90
0.05;0.03;1.02
0.04;-0.04;0.95
-0.12;-0.02;1.06
-0.13;-0.00;0.98
-0.17;-0.02;1.02
-0.29;0.00;1.10
-0.28;0.00;1.12
-0.23;-0.04;1.09
-0.17;-0.04;1.03
-0.03;-0.03;0.96
0.01;-0.04;0.94
0.03;-0.00;0.96
0.03;0.00;0.97
0.06;-0.13;1.17
-0.02;0.00;1.25
0.01;0.02;1.01
0.02;0.02;1.01
-0.00;0.02;1.00
-0.06;0.04;0.97
-0.09;0.04;0.98
-0.17;-0.04;1.59
-0.15;-0.06;1.11
0.01;-0.07;0.97
0.03;-0.02;0.90
0.02;0.05;0.72
0.03;0.04;0.69
0.04;-0.27;0.99
-0.16;-0.03;1.14
-0.13;-0.03;1.04
-0.24;0.04;0.91
-0.17;-0.02;0.97
-0.10;-0.07;1.14
-0.06;-0.07;1.06
-0.03;-0.02;1.01
0.01;-0.01;1.01
0.07;0.03;0.95
0.07;0.05;0.95
0.11;-0.09;1.26
0.08;-0.08;0.98
-0.01;-0.01;1.07
0.02;-0.00;1.04
-0.14;0.02;0.98
-0.26;0.06;0.94
-0.40;0.03;0.93
-0.28;-0.12;1.01
-0.12;-0.11;0.91
-0.03;-0.01;0.91
-0.04;0.10;0.67
0.05;-0.05;1.16
-0.01;-0.25;1.05
0.00;0.00;1.01
0.00;0.04;0.98
0.02;0.04;0.95
-0.08;0.08;0.94
-0.03;0.03;1.02
0.04;0.02;1.15
-0.01;-0.04;0.98
0.00;-0.08;1.00
-0.04;-0.04;0.97
-0.10;0.09;0.79
-0.14;0.00;0.98
-0.21;0.09;1.04
-0.23;0.00;1.05
-0.15;0.06;1.03
-0.21;0.08;1.05
-0.17;0.08;1.00
-0.08;-0.06;0.93
0.05;-0.06;1.00
0.05;-0.10;1.02
0.11;-0.15;1.01
0.11;-0.21;1.06
0.11;0.01;0.99
0.08;0.01;1.03
0.00;0.05;0.95
-0.17;0.06;0.96
-0.19;0.00;0.93
-0.19;-0.16;1.08
-0.17;0.02;1.09
-0.06;-0.04;0.86
-0.07;-0.02;0.86
-0.08;0.02;0.80
-0.10;0.03;0.76
-0.15;-0.08;1.05
-0.13;0.03;1.02
-0.16;0.03;1.03
-0.16;0.00;1.03
-0.17;-0.03;1.01
-0.17;0.01;1.08
-0.12;-0.10;1.05
0.01;-0.04;1.00
0.08;-0.06;0.97
0.13;-0.01;0.98
0.14;-0.01;0.96
0.09;-0.03;0.93
0.06;-0.03;1.00
-0.08;-0.00;1.04
-0.18;0.04;1.07
-0.17;0.05;1.11
-0.16;-0.03;1.03
-0.10;0.03;0.93
-0.07;-0.04;0.92
-0.12;-0.03;0.93
-0.17;-0.04;0.96
-0.20;-0.03;1.00
-0.25;0.01;1.07
-0.20;-0.00;1.05
-0.09;-0.03;1.02
-0.03;-0.01;1.00
0.04;-0.03;0.98
0.12;-0.05;1.08
0.10;0.00;1.01
0.10;0.03;1.02
0.02;0.00;1.05
-0.09;0.03;0.97
-0.02;-0.03;1.07
-0.14;-0.01;1.08
-0.12;-0.01;1.05
-0.10;-0.00;0.93
-0.13;0.03;0.84
-0.11;-0.03;0.90
-0.20;-0.02;0.87
-0.19;-0.15;1.15
-0.20;-0.13;1.45
-0.21;0.04;0.99
-0.08;0.00;1.01
-0.04;0.07;0.94
0.05;0.04;0.98
0.09;0.00;1.01
0.16;-0.06;0.95
0.19;-0.02;0.99
0.07;-0.05;1.00
0.05;-0.05;0.95
0.00;-0.05;0.94
-0.07;-0.03;1.00
-0.12;0.09;1.34
-0.11;0.06;1.15
-0.17;0.05;0.95
-0.24;0.16;0.97
-0.36;0.10;0.93
-0.25;-0.10;1.47
-0.04;-0.17;1.01
0.02;0.07;0.89
0.03;0.05;0.88
0.02;-0.18;1.20
0.08;-0.01;1.03
0.06;0.02;0.99
0.14;0.12;1.01
-0.09;0.08;1.10
-0.02;0.08;1.00
-0.09;0.04;0.74
-0.09;-0.09;1.09
-0.10;-0.10;1.03
-0.08;-0.12;1.05
-0.04;-0.01;0.85
-0.07;-0.09;1.08
-0.04;-0.05;1.02
-0.09;0.03;1.01
-0.04;0.14;0.96
-0.10;-0.04;0.87
0.03;-0.06;0.89
-0.02;0.02;0.90
-0.02;0.05;1.15
0.04;0.06;0.99
0.05;0.04;1.00
0.07;-0.01;1.03
0.08;-0.02;1.05
0.07;-0.02;1.05
0.01;-0.01;1.01
-0.03;0.02;1.00
-0.13;0.03;0.95
-0.16;0.04;0.96
-0.12;0.03;1.01
-0.12;-0.03;1.00
-0.11;-0.04;1.03
-0.11;-0.06;1.01
-0.05;-0.03;1.02
-0.06;-0.03;1.03
-0.03;-0.02;0.99
0.03;0.03;1.01
0.01;0.06;0.96
0.03;0.03;1.01
0.07;0.02;1.01
0.06;0.08;1.01
0.04;0.03;1.02
0.09;-0.03;1.02
0.03;-0.01;1.01
-0.12;0.05;0.97
-0.14;0.05;0.97
-0.11;0.03;1.01
-0.14;-0.02;1.00
-0.10;-0.03;1.04
-0.12;-0.07;1.07
-0.05;-0.01;0.84
-0.00;-0.01;1.00
0.00;0.02;0.99
-0.03;0.01;0.96
0.00;-0.00;1.00
-0.01;0.04;0.87
-0.06;0.03;1.05
-0.02;-0.01;0.83
-0.07;-0.01;1.22
-0.13;0.10;0.95
-0.14;0.05;1.02
0.02;-0.12;0.99
0.05;-0.14;0.80
0.04;-0.02;0.73
-0.05;-0.16;1.33
0.03;-0.01;1.07
-0.02;0.02;0.98
0.07;0.19;0.93
-0.09;-0.06;1.05
-0.12;-0.03;0.81
-0.23;0.02;1.43
-0.10;0.11;0.94
-0.05;0.09;0.81
-0.03;0.04;1.00
0.01;-0.02;0.96
0.03;-0.03;0.98
0.01;-0.03;0.96
-0.06;-0.07;1.21
-0.03;-0.02;1.01
-0.02;-0.05;1.01
-0.04;-0.05;0.98
-0.19;-0.02;1.11
-0.09;0.01;0.94
-0.09;0.05;1.19
-0.04;0.15;0.95
-0.05;0.21;1.37
0.05;0.09;1.05
0.10;0.02;0.94
0.10;-0.01;0.92
-0.01;-0.12;1.53
0.00;-0.11;1.13
-0.04;-0.06;0.89
0.01;-0.12;0.79
-0.28;0.46;2.43
-0.28;-0.13;1.20
-0.32;-0.10;1.02
-0.22;0.00;1.13
-0.19;-0.09;1.27
-0.15;0.02;1.00
-0.03;0.10;0.98
0.00;0.11;0.96
0.00;0.15;0.97
0.08;0.10;0.92
0.20;-0.15;0.86
0.12;-0.09;0.96
-0.11;-0.26;1.31
-0.12;-0.12;1.03
-0.20;-0.09;0.98
-0.12;-0.04;1.01
-0.10;-0.00;1.00
-0.13;0.02;1.04
-0.13;0.03;1.05
-0.09;0.02;0.99
0.06;-0.05;0.93
0.05;-0.07;0.91
0.01;-0.08;0.97
-0.02;-0.04;1.45
-0.11;-0.02;1.10
-0.07;0.01;1.02
0.02;0.27;0.90
-0.24;0.02;1.02
-0.01;-0.05;0.77
-0.03;0.03;1.05
0.01;0.11;0.91
-0.00;0.04;1.02
0.05;-0.02;1.11
0.09;0.06;0.88
0.08;0.00;0.93
0.05;-0.06;0.95
0.01;-0.12;0.97
-0.12;-0.07;1.34
-0.10;-0.04;1.00
-0.09;-0.04;1.00
-0.24;0.08;1.11
-0.24;0.13;1.08
-0.14;-0.00;0.96
-0.12;0.02;0.97
-0.12;-0.01;1.02
-0.01;-0.09;1.04
0.03;0.02;0.92
0.04;0.01;0.93
0.02;-0.01;0.93
0.02;-0.02;1.36
-0.09;0.01;1.01
-0.04;-0.06;1.02
-0.12;0.12;1.09
-0.07;-0.02;0.94
-0.01;-0.12;0.76
-0.11;-0.07;0.61
-0.16;0.47;2.38
-0.05;-0.08;1.17
0.12;0.61;1.19
0.09;0.04;0.74
0.11;-0.08;0.91
0.04;-0.16;1.05
-0.02;-0.03;1.00
-0.06;-0.03;1.02
-0.05;0.05;0.74
-0.24;0.09;0.95
-0.06;0.01;1.00
-0.18;0.06;0.91
-0.18;-0.01;0.98
-0.01;-0.11;1.33
0.05;-0.06;0.98
0.06;-0.00;0.92
-0.02;0.03;0.91
0.02;-0.03;0.93
-0.12;-0.06;1.02
-0.12;0.04;0.96
-0.03;0.00;0.96
-0.02;-0.02;1.00
-0.02;-0.00;1.00
-0.02;0.02;1.00
-0.04;0.00;1.00
-0.07;-0.03;1.09
-0.10;-0.03;1.02
-0.03;-0.05;0.95
-0.00;0.01;0.85
-0.02;-0.03;0.94
-0.05;-0.03;0.97
-0.16;0.09;1.05
-0.18;-0.00;1.07
-0.14;-0.02;1.01
-0.14;-0.03;1.00
-0.13;-0.02;1.01
-0.18;0.01;1.12
-0.17;0.03;1.06
-0.10;-0.00;1.04
-0.04;0.02;0.96
0.16;-0.02;0.90
0.15;-0.04;0.90
0.13;-0.07;0.93
0.06;-0.06;0.93
-0.10;-0.05;1.02
-0.04;-0.05;0.97
-0.06;-0.11;1.14
-0.17;0.12;0.91
-0.27;0.14;0.91
-0.26;0.01;0.95
-0.20;-0.05;0.98
-0.09;-0.07;1.06
-0.03;-0.01;0.90
-0.10;-0.03;0.94
-0.07;-0.01;0.97
-0.01;-0.01;0.93
0.00;-0.04;1.04
-0.04;-0.17;1.20
0.02;0.02;0.95
0.07;0.00;1.02
0.03;0.08;0.90
-0.06;0.09;0.96
-0.06;0.04;0.94
-0.13;0.04;0.96
-0.07;0.00;1.07
-0.09;-0.05;1.00
-0.09;0.01;0.86
-0.11;0.00;0.87
-0.10;-0.02;0.85
-0.08;-0.05;0.95
-0.10;-0.02;0.94
-0.10;-0.00;0.93
-0.13;-0.24;1.14
-0.07;-0.06;1.06
-0.09;0.05;0.94
-0.10;0.13;0.86
-0.03;0.04;0.96
-0.04;0.04;0.97
-0.09;-0.01;1.19
0.05;-0.07;1.01
0.04;-0.05;1.01
0.06;-0.05;0.97
0.04;0.03;0.98
-0.02;-0.08;1.07
-0.05;-0.12;0.98
-0.19;-0.01;0.92
-0.13;-0.03;0.97
-0.31;0.08;1.49
-0.23;0.10;0.98
-0.27;0.04;0.90
-0.20;-0.04;1.22
-0.15;0.04;0.99
0.04;-0.05;0.97
0.11;0.03;0.85
0.05;0.04;0.92
0.08;-0.06;1.00
0.07;0.02;0.90
0.03;-0.03;1.08
0.02;-0.05;1.11
-0.12;0.02;0.96
-0.17;0.02;0.97
-0.24;0.06;0.91
-0.20;0.01;0.99
-0.08;-0.03;1.07
-0.04;-0.02;0.98
-0.04;-0.03;1.01
-0.05;0.00;0.96
-0.00;-0.05;0.95
0.02;-0.06;0.93
-0.03;-0.03;0.89
-0.09;-0.01;0.85
-0.07;0.05;1.15
-0.10;0.03;1.29
-0.20;0.04;0.93
-0.18;0.13;1.11
-0.02;0.05;1.00
-0.07;-0.05;0.97
-0.02;-0.05;0.98
-0.00;-0.09;0.95
-0.02;-0.07;0.91
-0.11;-0.06;0.88
-0.14;-0.07;0.94
-0.25;-0.06;1.10
-0.25;-0.06;1.07
-0.10;-0.05;1.09
-0.16;-0.06;1.04
-0.10;-0.00;1.00
-0.12;-0.01;1.11
-0.12;-0.02;1.04
0.01;-0.09;1.07
0.04;-0.11;0.99
0.15;-0.03;0.76
0.12;0.03;0.88
-0.03;0.05;0.90
-0.02;0.06;0.95
0.01;0.07;0.97
-0.23;-0.06;1.39
-0.28;0.02;0.87
-0.17;0.07;0.95
-0.13;-0.04;1.14
-0.10;-0.12;0.95
0.06;-0.06;0.95
0.07;-0.02;0.85
0.07;-0.03;0.92
-0.03;-0.02;0.93
-0.07;-0.14;1.09
-0.09;-0.02;1.02
-0.26;0.01;1.24
-0.25;0.08;0.97
-0.25;-0.05;0.96
-0.33;-0.03;1.58
-0.24;0.02;1.09
0.00;0.00;0.83
0.13;-0.03;0.76
0.07;-0.08;1.00
0.14;0.02;0.70
-0.16;0.05;2.27
-0.07;0.15;0.90
-0.02;0.04;1.01
-0.01;-0.01;1.01
-0.04;-0.01;1.01
-0.18;0.06;0.98
-0.26;0.02;1.00
-0.27;0.00;1.30
-0.20;0.08;0.93
0.09;-0.03;0.83
0.13;-0.13;0.96
0.12;-0.07;0.86
0.05;0.06;0.55
-0.25;-0.21;1.88
-0.10;0.17;0.91
-0.18;0.08;1.02
-0.14;0.11;0.97
-0.14;0.04;0.86
-0.15;0.05;0.98
-0.12;-0.08;1.55
-0.03;0.01;0.97
0.01;-0.01;0.93
0.02;-0.15;0.94
-0.01;-0.04;0.76
0.02;-0.06;1.27
-0.04;-0.01;1.08
-0.09;0.19;0.89
-0.11;0.07;0.81
0.01;-0.10;0.79
-0.06;0.12;0.94
-0.19;0.12;0.97
-0.04;-0.11;0.96
-0.10;-0.02;1.04
0.03;-0.01;0.86
-0.02;-0.01;0.85
-0.01;-0.07;0.82
-0.05;-0.13;1.05
-0.17;-0.10;1.02
-0.13;-0.05;0.98
-0.26;-0.10;1.16
-0.23;0.05;0.92
-0.18;-0.01;0.98
-0.16;-0.02;1.16
-0.09;-0.01;1.09
-0.01;0.03;0.98
0.06;-0.02;0.96
0.11;0.02;0.95
0.07;-0.02;0.95
0.07;-0.05;0.94
-0.03;-0.08;0.99
-0.16;-0.11;1.17
-0.21;0.03;0.95
-0.18;0.05;0.99
-0.12;0.08;1.00
-0.09;0.02;1.00
-0.13;-0.00;0.96
-0.13;0.00;0.99
-0.04;-0.02;0.98
-0.05;-0.06;1.13
0.00;0.03;1.02
-0.08;0.03;1.04
-0.10;-0.02;1.09
-0.11;-0.01;0.95
-0.02;-0.03;0.93
0.02;-0.04;0.91
-0.02;-0.10;0.93
-0.07;-0.05;1.26
-0.05;-0.00;1.16
-0.08;-0.00;1.04
-0.07;0.00;0.96
-0.12;0.04;0.97
-0.06;0.02;1.00
-0.08;0.03;1.00
-0.10;0.01;1.24
0.00;0.01;0.95
-0.02;-0.07;1.01
-0.05;-0.04;0.97
-0.10;-0.05;0.94
-0.08;-0.04;0.92
-0.09;-0.09;1.22
-0.06;-0.03;1.09
-0.04;-0.04;1.04
-0.05;0.01;1.00
-0.04;0.06;1.00
-0.11;0.00;0.98
0.02;0.11;0.92
-0.08;0.07;0.98
0.02;-0.08;1.46
-0.06;-0.13;1.08
-0.10;0.04;1.02
-0.09;0.04;0.91
-0.05;0.00;0.89
-0.01;-0.05;0.80
-0.03;-0.05;0.74
-0.01;-0.09;0.73
-0.12;-0.09;0.94
-0.09;0.07;0.44
-0.25;-0.14;1.57
-0.11;0.12;0.92
-0.17;0.04;0.96
-0.13;-0.06;0.98
-0.10;-0.02;1.00
0.03;-0.00;1.02
0.03;0.02;0.97
0.06;0.03;0.98
-0.01;-0.01;0.97
-0.01;-0.18;1.05
-0.00;-0.03;0.96
-0.03;-0.03;0.98
-0.02;-0.09;0.96
-0.09;-0.07;0.95
-0.26;0.09;0.98
-0.31;0.07;0.93
-0.24;-0.03;1.11
-0.20;-0.03;1.05
-0.16;0.00;0.98
-0.02;-0.05;0.94
-0.04;-0.02;0.92
0.05;-0.02;1.01
0.09;0.02;1.02
0.03;-0.02;0.86
0.00;0.04;0.76
0.08;-0.08;0.95
-0.05;0.08;1.16
-0.06;-0.01;1.01
-0.14;0.07;0.96
-0.18;0.05;0.94
-0.33;0.11;1.00
-0.18;-0.07;1.13
-0.02;-0.08;0.97
-0.00;-0.05;0.90
-0.04;0.02;0.75
-0.08;0.02;0.72
-0.13;-0.28;1.27
-0.15;-0.07;1.01
-0.06;-0.12;1.06
-0.04;-0.13;1.10
-0.09;0.05;0.96
-0.13;0.10;0.93
-0.11;0.02;0.95
-0.12;0.02;0.97
-0.08;0.03;1.07
-0.04;-0.05;1.01
0.05;-0.11;0.99
0.02;-0.06;0.92
-0.03;-0.04;0.93
-0.07;-0.03;0.94
-0.12;-0.04;0.97
-0.13;-0.12;1.12
-0.10;-0.02;0.97
-0.20;0.03;0.98
-0.15;0.08;0.94
-0.34;0.00;1.34
-0.20;-0.02;1.15
-0.02;-0.08;0.93
0.09;-0.09;0.90
0.11;-0.01;0.90
0.03;-0.05;0.92
-0.02;0.01;0.91
-0.06;-0.09;1.22
-0.13;0.11;1.10
-0.13;0.03;0.98
-0.22;0.03;0.96
-0.13;0.04;1.04
-0.16;-0.00;1.03
-0.11;-0.06;1.01
-0.07;-0.08;0.95
-0.03;-0.01;0.87
-0.02;-0.01;0.89
-0.06;-0.17;1.03
-0.13;0.02;1.03
-0.15;0.04;0.99
-0.19;0.02;0.97
-0.22;0.03;0.94
-0.19;0.04;0.96
-0.06;-0.09;1.04
0.10;0.01;0.94
0.09;0.06;0.97
0.14;-0.00;0.95
0.11;-0.02;0.94
0.09;-0.05;1.02
-0.05;0.02;1.01
-0.13;0.00;0.96
-0.18;-0.05;1.13
-0.04;-0.07;1.02
-0.11;-0.03;0.99
-0.09;-0.03;0.98
-0.09;-0.06;1.12
-0.06;-0.06;1.00
-0.11;0.04;1.03
-0.11;0.00;1.00
-0.05;-0.03;1.02
-0.03;0.00;1.04
0.10;0.11;1.03
-0.08;0.12;0.93
-0.09;-0.04;0.97
-0.17;0.08;0.80
-0.12;0.03;0.95
0.05;0.00;1.06
0.11;-0.03;0.94
0.06;-0.14;1.14
-0.00;-0.07;1.01
0.02;-0.00;1.02
0.04;-0.02;1.00
0.01;-0.00;1.03
-0.04;-0.01;0.99
-0.24;0.08;1.05
-0.18;-0.00;1.03
-0.21;0.01;0.96
-0.19;-0.01;1.02
-0.03;-0.15;1.14
0.04;0.01;0.97
0.08;0.08;0.91
0.05;0.03;0.93
0.06;-0.00;0.89
0.02;0.03;1.23
-0.02;0.05;1.02
-0.05;-0.00;0.99
-0.09;0.02;0.95
-0.12;-0.03;0.97
-0.15;-0.01;0.99
-0.11;-0.04;1.15
-0.10;-0.02;0.98
-0.05;-0.02;0.96
-0.04;-0.03;0.93
-0.05;-0.06;0.95
-0.10;-0.05;0.92
-0.09;-0.03;0.97
-0.11;-0.10;0.99
-0.10;0.03;0.99
-0.07;-0.01;1.01
-0.06;0.04;0.99
-0.12;0.04;0.92
-0.04;-0.05;1.01
-0.01;-0.04;1.04
0.03;0.00;1.01
0.01;-0.01;0.99
0.04;0.02;1.01
0.02;0.02;0.94
-0.00;-0.04;1.12
-0.01;-0.05;0.99
-0.01;-0.03;1.04
-0.02;-0.08;1.03
-0.05;-0.02;1.02
-0.24;0.07;0.84
-0.20;0.07;0.92
-0.24;-0.01;1.00
-0.23;-0.15;1.54
-0.10;-0.10;1.00
-0.01;-0.10;0.98
-0.00;0.05;0.92
-0.00;0.13;0.71
0.05;-0.03;0.94
0.04;-0.02;0.89
-0.21;0.13;0.84
0.16;-0.03;1.37
-0.10;0.02;0.98
-0.15;0.03;0.93
-0.15;0.00;0.99
-0.15;-0.00;0.97
-0.18;-0.05;1.31
-0.08;-0.09;1.03
-0.11;-0.09;0.97
0.02;0.07;0.93
-0.02;0.06;0.73
-0.04;-0.05;0.94
-0.04;-0.05;0.94
-0.02;0.02;0.72
-0.04;0.10;2.00
-0.04;0.03;0.99
-0.14;0.13;0.76
-0.12;-0.06;1.04
-0.11;0.04;1.00
-0.15;0.06;1.01
0.03;-0.05;1.29
0.02;-0.06;1.02
-0.04;-0.03;0.92
-0.04;-0.01;0.92
-0.05;-0.00;0.91
-0.08;-0.01;0.90
-0.14;-0.12;1.07
-0.12;0.03;0.98
-0.14;0.01;1.00
-0.04;0.02;0.98
-0.15;0.04;0.93
-0.13;-0.02;0.99
-0.04;-0.02;1.08
-0.02;-0.04;0.93
0.07;-0.01;0.94
0.03;0.02;0.91
0.02;0.01;0.93
-0.05;-0.04;0.92
-0.10;-0.45;1.09
-0.14;0.14;1.28
-0.16;0.04;1.11
-0.15;0.04;0.96
-0.09;-0.02;1.00
-0.20;0.06;0.92
-0.13;0.00;1.01
0.01;-0.07;1.25
0.03;-0.03;0.96
0.03;-0.02;1.00
0.04;0.02;0.96
0.04;-0.00;0.93
0.01;0.01;0.95
-0.05;-0.03;1.09
-0.14;-0.05;1.01
-0.11;-0.07;1.05
-0.07;-0.04;1.00
-0.08;-0.02;1.00
-0.20;0.02;1.03
-0.12;0.02;1.01
-0.18;0.01;1.02
-0.17;-0.02;1.05
-0.11;-0.14;1.02
0.01;-0.01;0.95
0.01;-0.00;0.94
-0.05;-0.08;1.01
-0.05;-0.03;1.00
0.01;0.01;0.91
0.05;0.03;0.93
-0.07;-0.20;1.18
0.00;-0.05;0.99
-0.02;-0.05;1.08
-0.11;0.09;0.79
-0.24;0.12;0.93
-0.23;0.02;0.82
-0.18;-0.03;0.90
-0.21;-0.13;1.58
-0.04;-0.17;1.05
-0.04;0.00;0.98
-0.05;0.16;1.02
0.05;0.07;1.00
0.13;-0.04;1.04
0.10;-0.05;0.97
-0.02;-0.04;0.94
0.00;-0.05;0.83
0.15;0.04;0.99
-0.14;-0.06;1.24
-0.26;0.13;0.82
-0.19;0.05;0.95
-0.14;-0.02;1.01
-0.07;0.06;1.19
-0.05;-0.09;0.99
-0.03;-0.03;0.98
-0.01;0.04;0.96
-0.03;0.01;0.86
-0.01;-0.06;0.95
-0.02;-0.09;1.00
-0.01;-0.09;0.94
-0.00;-0.10;0.99
-0.02;-0.02;1.03
-0.05;0.02;1.02
-0.09;0.08;0.97
-0.31;0.18;0.92
-0.26;-0.00;1.01
-0.31;-0.01;1.02
-0.16;-0.04;1.60
-0.04;0.06;1.00
0.11;-0.02;0.92
0.02;-0.00;0.85
-0.00;0.01;0.85
0.04;-0.16;1.12
-0.01;-0.05;0.87
0.01;0.01;0.67
0.07;-0.02;0.99
-0.11;-0.03;1.36
-0.17;0.13;0.92
-0.26;0.14;0.96
-0.21;0.09;0.85
-0.28;0.01;1.01
-0.14;0.03;0.85
-0.07;-0.07;0.90
0.05;-0.07;0.89
0.01;-0.03;0.93
-0.00;0.03;0.94
-0.01;0.02;0.98
-0.02;0.00;0.98
-0.02;-0.01;0.97
0.01;-0.01;0.96
0.05;-0.03;1.15
-0.22;0.14;0.95
-0.17;-0.02;0.94
-0.31;0.12;0.78
-0.15;0.12;1.78
-0.06;-0.01;1.07
-0.01;-0.02;0.94
0.02;-0.02;0.94
-0.02;-0.00;0.95
0.03;-0.02;1.11
0.07;-0.08;0.95
0.01;0.04;0.68
-0.25;-0.05;1.28
0.12;-0.11;1.12
-0.21;0.07;0.98
-0.28;0.15;1.03
-0.16;-0.00;0.90
-0.25;-0.04;1.03
-0.07;-0.02;1.46
-0.06;-0.08;0.88
0.09;-0.06;0.88
0.04;0.01;0.92
0.06;0.04;0.95
0.00;0.03;0.78
0.02;0.04;1.00
-0.12;-0.00;1.53
-0.22;0.10;0.91
-0.18;0.08;0.94
-0.27;0.04;0.95
-0.29;-0.06;1.31
-0.16;0.04;0.99
-0.03;-0.01;0.95
0.02;-0.01;0.93
-0.01;-0.02;0.96
-0.01;-0.11;1.02
-0.01;-0.10;0.99
-0.03;-0.01;0.95
-0.07;0.06;1.03
-0.02;0.04;1.03
-0.16;0.03;1.06
-0.19;0.01;1.08
-0.16;0.10;1.03
-0.20;0.14;0.66
-0.23;0.01;1.07
-0.13;-0.01;1.05
0.02;-0.03;0.93
0.06;-0.04;0.87
0.02;-0.10;0.84
0.03;-0.19;1.02
0.02;-0.07;1.02
-0.06;0.02;1.02
-0.02;0.01;1.00
-0.13;0.11;0.99
-0.19;0.13;0.97
-0.19;0.04;0.98
-0.27;0.13;0.82
-0.18;-0.09;0.96
-0.07;-0.10;1.04
0.01;-0.05;1.00
-0.04;-0.01;0.99
-0.03;0.06;0.91
-0.05;-0.03;1.11
0.03;0.01;1.04
-0.04;0.01;1.01
-0.02;0.01;1.03
-0.12;0.07;0.99
-0.21;0.09;0.95
-0.33;0.06;0.92
-0.21;-0.00;0.98
-0.16;-0.04;0.99
-0.07;-0.03;1.55
-0.05;-0.04;1.01
-0.00;-0.01;1.00
0.05;0.04;0.83
0.05;0.00;0.73
0.00;-0.30;1.58
-0.07;0.02;0.68
0.12;-0.06;1.14
-0.03;0.03;0.98
-0.08;0.08;1.00
-0.26;0.06;0.92
-0.20;-0.13;0.80
-0.10;0.01;1.10
-0.13;-0.03;0.98
-0.02;-0.06;1.07
-0.00;-0.01;1.03
-0.05;0.03;1.00
-0.02;0.03;1.03
0.02;0.01;1.00
-0.01;0.02;1.03
0.01;0.01;1.01
-0.05;0.03;1.01
-0.07;0.04;1.00
-0.13;0.12;0.89
-0.20;-0.00;1.09
-0.19;0.07;0.92
-0.17;0.07;0.97
-0.13;-0.02;0.98
-0.04;-0.08;1.01
0.10;-0.08;1.00
0.04;0.02;0.97
0.05;0.06;0.87
0.03;0.03;1.07
-0.04;0.05;1.00
-0.02;0.03;1.01
-0.02;0.04;0.99
-0.20;0.14;0.99
-0.18;0.09;1.02
-0.27;-0.10;0.76
-0.17;0.01;0.89
-0.15;-0.02;0.98
-0.06;-0.05;1.01
-0.01;-0.00;1.01
-0.03;0.02;1.04
0.00;0.02;0.99
0.02;-0.03;0.95
-0.11;-0.01;1.30
-0.03;0.05;0.99
-0.05;0.03;1.03
-0.04;0.03;1.01
-0.08;0.04;0.98
-0.20;0.07;0.99
-0.10;-0.18;0.90
-0.15;0.12;0.84
-0.19;0.03;0.96
-0.20;-0.03;0.95
-0.06;-0.02;1.71
-0.04;-0.03;0.89
0.09;0.11;0.95
0.09;0.07;0.80
0.11;-0.06;0.91
0.04;-0.16;1.18
-0.28;0.04;1.38
0.14;0.01;1.01
-0.15;0.07;0.95
-0.20;0.09;0.96
-0.13;0.01;1.00
-0.33;0.09;0.90
-0.24;-0.01;0.96
-0.16;-0.06;1.00
-0.05;-0.07;0.93
0.04;0.04;0.93
0.03;0.03;0.91
0.07;-0.06;0.94
-0.03;-0.21;1.37
-0.05;-0.00;0.82
-0.36;0.08;1.83
-0.12;0.11;0.99
-0.13;0.10;0.99
-0.24;0.03;0.97
-0.25;0.01;1.01
-0.22;-0.03;0.96
-0.18;-0.06;0.98
0.05;-0.11;1.17
0.01;-0.03;0.97
0.03;0.03;0.96
0.05;-0.07;1.04
-0.05;0.02;1.22
-0.03;0.04;1.00
0.02;0.03;1.02
-0.03;0.06;1.00
-0.10;0.10;0.99
-0.28;0.03;1.01
-0.19;-0.05;1.00
-0.36;-0.05;0.96
-0.33;-0.11;0.95
0.01;-0.19;0.96
0.00;0.03;0.77
0.06;0.15;0.89
0.02;0.10;0.69
0.10;-0.06;1.54
-0.10;0.00;1.03
-0.26;0.11;1.61
-0.11;0.11;1.01
-0.11;0.07;0.98
-0.24;-0.04;0.97
-0.32;0.06;0.94
-0.15;-0.09;1.56
0.01;-0.18;1.08
0.05;-0.05;0.91
-0.03;0.09;0.75
-0.04;-0.01;1.06
-0.12;-0.09;0.99
-0.17;-0.07;1.29
-0.06;0.04;1.01
-0.01;0.01;1.04
-0.13;0.07;0.97
-0.28;0.12;0.91
-0.36;0.12;0.90
-0.33;0.03;0.91
0.00;-0.21;1.41
0.03;-0.08;0.87
0.15;0.04;0.77
0.09;0.08;0.86
-0.09;0.02;0.85
-0.16;-0.20;0.98
-0.08;-0.02;0.92
-0.12;-0.00;0.97
-0.11;-0.00;0.98
-0.20;0.04;0.96
-0.22;0.07;0.97
-0.18;-0.01;0.97
-0.20;-0.04;0.98
-0.23;-0.10;0.96
-0.14;-0.16;1.47
-0.02;-0.12;0.96
0.06;0.02;0.94
0.05;0.07;0.71
-0.13;0.16;1.25
-0.00;0.12;0.99
0.00;0.06;1.00
0.01;0.07;1.02
-0.07;0.10;0.98
-0.28;0.10;0.85
-0.16;0.02;0.96
-0.18;-0.03;0.97
-0.21;-0.03;0.96
-0.14;-0.10;1.02
0.01;-0.18;0.99
0.01;-0.12;0.98
0.00;0.06;0.88
0.02;0.04;1.09
-0.00;0.04;0.99
0.03;0.07;1.01
0.29;0.43;1.08
-0.06;0.11;1.19
-0.06;0.09;0.73
-0.06;-0.04;0.86
-0.12;-0.17;0.88
-0.35;0.35;1.78
-0.11;-0.03;0.84
-0.02;-0.13;1.16
0.03;-0.03;1.03
0.02;0.09;1.02
0.01;0.05;1.01
0.02;0.03;1.01
0.04;0.01;1.01
0.01;0.17;1.05
0.02;0.07;1.00
-0.03;0.08;0.89
-0.06;0.07;0.86
-0.02;-0.01;0.80
-0.29;-0.09;0.78
-0.25;0.42;1.96
-0.01;-0.22;0.87
0.03;-0.15;1.11
0.04;0.03;1.02
0.05;0.12;1.01
0.03;0.11;1.00
0.03;0.30;0.86
-0.08;0.22;1.09
0.11;0.08;1.05
0.02;0.08;1.09
-0.04;0.02;0.92
-0.02;0.02;0.77
-0.11;-0.01;0.92
-0.22;-0.02;0.83
-0.06;-0.04;1.02
-0.00;-0.01;0.96
0.01;0.04;1.05
0.01;0.12;0.98
0.01;0.06;0.98
0.03;0.01;1.05
0.02;0.06;1.00
-0.05;0.16;0.94
-0.03;0.09;1.26
-0.12;0.06;0.84
-0.10;-0.04;0.85
-0.16;0.04;0.90
-0.17;0.06;1.18
-0.08;0.01;0.96
-0.02;-0.02;0.98
0.06;-0.02;1.09
0.06;-0.02;1.01
-0.01;0.05;1.01
0.02;0.05;1.01
0.04;0.07;1.01
-0.05;0.15;0.89
-0.01;0.07;1.31
-0.11;0.05;0.80
-0.12;0.00;0.76
-0.39;0.34;1.56
-0.12;0.06;0.89
-0.04;-0.08;0.98
-0.02;-0.09;1.09
-0.00;-0.04;1.05
-0.02;0.03;1.01
-0.01;0.06;1.00
-0.02;0.06;1.02
-0.05;0.02;1.01
-0.13;0.03;0.99
-0.14;0.03;0.99
-0.18;-0.05;1.03
-0.24;-0.09;1.06
-0.24;-0.23;1.12
-0.15;-0.26;1.13
-0.01;-0.20;1.03
-0.00;-0.10;0.77
-0.01;0.13;0.66
-0.02;0.22;0.56
-0.05;0.22;0.63
0.05;-0.21;1.11
-0.24;-0.10;1.37
-0.01;0.04;0.62
-0.05;0.08;1.28
-0.20;0.06;1.12
-0.17;0.06;1.17
-0.22;0.03;1.08
-0.15;0.04;0.99
-0.06;0.08;0.88
-0.02;0.12;0.90
0.00;0.11;0.93
-0.02;0.10;1.04
0.01;0.10;1.01
0.08;0.20;1.47
0.08;0.10;1.21
-0.06;0.10;0.94
-0.13;0.09;1.01
-0.02;0.11;0.99
0.01;-0.03;1.01
-0.05;-0.08;1.00
-0.03;-0.11;1.03
0.00;-0.17;1.03
0.03;-0.22;0.98
-0.03;-0.20;0.96
-0.01;-0.16;1.01
-0.06;-0.01;0.99
-0.01;0.12;1.02
0.13;0.01;1.18
-0.11;0.12;1.13
0.01;0.12;0.86
-0.03;0.14;0.91
-0.04;0.12;0.88
0.12;-0.12;1.08
0.11;-0.16;0.98
0.05;-0.31;0.98
0.03;-0.33;1.01
-0.00;-0.15;0.99
-0.04;-0.22;0.97
-0.14;-0.13;1.17
-0.02;-0.01;1.01
-0.08;0.04;1.02
-0.01;0.10;0.73
-0.07;0.12;0.82
0.08;0.15;0.89
0.08;0.16;0.96
0.02;0.14;0.94
0.01;0.06;0.96
-0.07;0.05;1.03
0.09;-0.05;1.08
-0.05;-0.09;1.24
0.02;-0.04;0.96
0.05;-0.07;0.97
0.05;-0.07;0.82
0.04;-0.06;0.86
0.01;-0.08;0.82
-0.05;-0.28;1.12
0.08;-0.13;0.96
0.09;-0.01;1.09
0.06;-0.02;0.94
0.00;-0.01;0.95
0.10;0.00;0.88
-0.06;0.11;1.15
-0.02;0.08;1.05
-0.15;0.04;0.99
-0.09;0.04;0.72
-0.21;0.05;1.35
-0.08;-0.01;1.09
0.04;-0.04;1.06
0.06;-0.13;0.96
0.06;-0.11;0.89
0.06;-0.10;0.87
0.02;-0.05;0.94
-0.02;0.01;0.96
-0.07;0.24;1.54
-0.09;0.12;1.04
-0.10;0.09;1.02
-0.05;0.01;1.02
-0.01;0.03;1.07
0.02;-0.09;1.00
0.03;-0.11;0.96
-0.00;-0.03;1.00
-0.05;-0.00;1.01
-0.03;-0.00;0.96
-0.04;0.01;1.08
0.02;0.01;0.97
0.01;0.01;1.01
-0.05;0.02;1.00
-0.01;-0.03;0.98
-0.07;-0.03;1.05
-0.07;0.06;0.95
-0.11;0.05;0.97
-0.03;-0.05;1.17
0.11;-0.11;1.05
0.50;-0.05;1.06
-0.08;0.10;1.11
-0.23;0.03;0.96
-0.14;-0.06;0.83
-0.03;-0.06;1.00
0.09;-0.02;1.33
0.02;0.00;1.05
-0.02;0.02;1.02
0.07;0.05;0.99
0.02;0.05;1.08
0.03;0.06;1.03
0.07;0.02;1.03
0.06;-0.01;1.04
0.00;0.03;0.93
0.27;-0.05;0.74
0.03;-0.04;1.02
-0.22;0.05;0.96
-0.41;0.09;1.02
-0.29;0.03;1.05
-0.04;0.07;0.67
-0.14;-0.01;1.64
-0.00;-0.15;0.95
0.08;-0.16;1.09
-0.07;-0.09;1.08
0.04;-0.06;0.98
0.01;-0.07;0.93
-0.06;-0.09;0.76
-0.16;0.09;1.27
-0.13;-0.09;1.10
-0.12;0.55;1.15
-0.08;-0.09;0.86
-0.03;-0.14;0.94
0.05;0.03;0.89
-0.01;0.15;0.78
0.13;0.01;0.92
0.08;0.19;2.05
0.12;-0.02;1.20
-0.09;-0.03;1.10
-0.01;-0.04;0.85
-0.03;0.00;0.81
-0.09;-0.00;0.84
-0.07;-0.05;1.17
-0.16;0.09;0.97
-0.00;-0.04;0.93
0.00;-0.03;0.93
0.05;0.08;1.08
0.03;0.08;1.02
0.03;0.05;1.03
0.02;-0.04;1.10
-0.01;-0.02;1.08
0.00;0.01;0.87
0.03;0.03;0.89
-0.07;-0.06;1.11
-0.05;-0.06;1.07
-0.01;-0.05;0.93
0.02;-0.03;0.90
0.02;0.03;0.93
0.02;0.01;0.95
-0.06;0.02;0.92
0.01;0.01;1.01
0.12;-0.09;1.07
-0.08;0.00;1.01
-0.00;-0.01;1.00
-0.04;-0.01;1.01
-0.06;0.00;1.03
-0.06;0.07;1.09
-0.00;0.00;1.00
0.03;-0.03;0.94
0.01;-0.03;0.95
0.06;0.01;0.96
0.01;0.02;1.06
-0.01;-0.02;1.06
0.01;-0.00;0.98
-0.03;-0.03;1.02
-0.05;-0.03;1.00
0.00;-0.05;1.00
-0.11;0.02;1.04
-0.11;0.04;1.04
0.02;0.01;1.07
0.06;-0.04;0.94
0.05;-0.06;0.92
0.03;0.02;0.98
0.01;-0.00;1.00
0.01;-0.04;1.03
-0.06;-0.01;1.03
0.00;-0.04;1.02
-0.07;0.01;1.02
-0.12;0.04;0.99
-0.06;0.10;1.16
0.01;-0.02;0.92
0.04;-0.07;0.94
0.03;-0.08;0.94
0.03;-0.06;0.95
0.10;0.03;1.39
0.08;0.02;1.03
-0.01;0.01;1.03
-0.01;0.02;1.02
-0.07;-0.08;1.01
-0.10;0.00;1.00
-0.09;0.00;1.02
-0.08;0.03;1.00
0.02;0.02;1.07
-0.01;-0.01;0.97
-0.01;-0.01;0.99
0.04;-0.02;1.00
0.02;-0.03;1.00
0.12;-0.03;0.99
0.14;-0.03;1.02
-0.07;-0.02;1.20
0.03;-0.01;0.82
-0.01;0.01;0.83
-0.04;0.02;0.78
-0.17;0.02;2.11
-0.09;0.10;1.29
-0.16;-0.01;0.96
0.04;-0.06;0.89
0.09;-0.06;0.87
0.04;0.03;0.93
0.09;-0.03;0.93
0.01;0.00;1.03
0.01;0.02;1.01
0.06;-0.00;1.08
-0.04;-0.00;0.99
-0.10;-0.06;1.01
-0.17;0.01;1.04
-0.12;-0.00;0.98
-0.09;-0.01;1.00
-0.06;-0.04;0.93
0.03;-0.06;0.92
0.05;-0.02;0.95
0.06;-0.02;0.94
0.07;-0.03;1.00
0.01;0.01;1.00
0.01;-0.00;1.00
-0.12;0.01;1.19
-0.02;-0.01;0.77
-0.01;-0.04;0.85
-0.14;-0.05;1.07
-0.16;-0.03;1.09
0.04;-0.08;0.89
0.07;-0.08;0.89
0.09;-0.02;0.97
0.04;-0.04;0.89
0.09;0.02;1.00
0.01;0.09;1.12
0.01;0.04;1.02
0.08;-0.00;1.08
-0.12;0.01;1.10
-0.03;0.01;1.36
-0.07;-0.05;1.04
-0.32;0.17;1.02
-0.02;-0.02;1.10
0.03;-0.06;0.91
0.07;-0.04;0.94
0.10;-0.00;1.00
0.05;-0.06;0.92
0.15;0.12;1.41
0.06;0.05;1.10
-0.01;0.01;1.00
-0.01;-0.02;0.99
-0.06;-0.09;1.02
-0.10;-0.01;0.99
-0.05;-0.03;0.97
0.08;-0.02;1.01
0.01;-0.00;0.98
0.06;0.03;1.01
0.09;0.03;0.91
-0.05;0.03;0.92
0.04;-0.04;0.81
0.01;-0.09;0.99
-0.07;-0.02;1.07
0.07;0.03;1.17
0.04;-0.03;0.95
0.05;-0.00;0.93
0.03;-0.01;0.94
0.07;-0.03;0.96
0.03;0.02;1.09
-0.03;0.02;0.99
-0.04;-0.01;1.02
-0.03;-0.03;1.04
-0.02;-0.02;0.99
-0.06;-0.02;1.01
-0.15;0.14;1.04
0.01;0.05;1.10
-0.01;-0.03;0.98
0.04;-0.05;0.96
0.00;-0.04;0.95
0.06;-0.02;0.96
0.00;0.02;1.19
-0.05;0.00;1.02
-0.03;-0.01;1.02
-0.04;-0.04;1.01
-0.08;0.01;1.01
-0.02;0.01;1.01
-0.01;0.00;1.01
-0.00;0.01;1.01
0.02;-0.03;1.00
0.02;-0.07;0.99
0.03;-0.01;0.98
0.03;0.00;1.06
-0.01;-0.00;1.02
0.00;0.01;0.99
-0.02;-0.02;1.03
-0.02;0.00;1.03
-0.06;-0.03;1.00
-0.07;-0.08;1.03
-0.13;0.01;1.04
-0.05;0.04;1.16
0.03;-0.03;0.96
0.06;-0.03;0.95
0.02;-0.01;0.96
0.07;-0.03;0.94
0.01;-0.02;0.98
-0.01;-0.01;1.02
-0.09;0.04;1.03
-0.06;0.01;1.02
-0.08;-0.01;0.99
-0.12;-0.00;1.05
-0.14;0.03;1.02
-0.06;0.01;1.02
-0.08;0.01;1.01
-0.00;-0.02;0.96
0.02;-0.05;0.96
0.09;-0.06;0.93
0.05;-0.04;0.94
0.02;0.01;1.00
-0.00;0.01;1.00
-0.03;-0.00;1.02
0.03;0.04;1.00
-0.13;0.02;1.05
-0.06;-0.02;1.03
-0.17;0.03;1.02
-0.07;0.01;1.04
-0.09;-0.00;1.01
-0.01;-0.03;0.97
0.02;-0.05;0.93
0.08;-0.02;0.94
0.06;-0.04;0.95
0.05;-0.02;0.98
0.02;-0.00;1.00
-0.03;0.02;1.02
-0.04;0.02;1.06
-0.16;-0.01;1.02
-0.12;0.02;1.04
-0.06;0.05;1.02
-0.09;0.02;1.03
-0.10;0.00;1.07
-0.02;-0.03;0.97
-0.01;-0.05;0.96
0.05;-0.03;0.94
0.04;-0.04;0.94
0.03;-0.03;0.99
0.04;-0.00;0.99
-0.07;0.02;0.98
-0.03;0.03;0.98
-0.02;-0.00;1.02
-0.03;-0.02;1.00
-0.04;-0.01;1.02
-0.02;0.03;1.20
0.00;-0.03;0.97
0.02;-0.00;0.95
0.03;0.03;0.95
0.02;-0.03;0.95
0.01;-0.03;0.98
-0.07;0.04;1.01
-0.02;-0.01;1.01
-0.02;0.00;0.99
-0.06;-0.02;0.99
-0.10;-0.03;1.02
-0.08;-0.01;1.02
-0.08;0.08;1.12
0.02;-0.02;0.95
0.00;-0.02;0.96
0.07;-0.00;0.94
0.06;-0.04;0.95
0.04;-0.01;0.98
-0.05;0.04;1.10
-0.04;0.01;1.02
-0.02;0.00;1.01
-0.07;-0.02;1.01
-0.03;-0.02;1.01
-0.12;0.01;1.02
-0.11;0.09;1.04
0.01;0.02;1.09
0.02;-0.02;0.95
0.04;-0.03;0.95
0.04;-0.03;0.98
0.05;-0.02;1.01
-0.04;0.03;1.03
0.00;0.02;1.03
0.00;0.02;0.97
0.02;0.01;1.01
-0.16;-0.05;1.11
-0.15;-0.07;0.99
-0.14;-0.04;1.06
-0.14;0.04;1.24
-0.04;-0.04;0.94
0.04;-0.03;0.91
0.07;-0.02;0.93
0.05;0.02;0.96
0.08;-0.04;0.96
0.02;-0.01;1.02
0.07;0.06;1.29
-0.04;0.01;1.08
-0.00;0.04;1.03
-0.15;-0.01;1.16
-0.11;-0.00;0.98
-0.21;-0.05;0.96
-0.11;-0.07;1.07
0.03;0.01;1.21
0.05;-0.07;0.88
0.08;-0.05;0.92
0.08;0.01;0.93
0.09;-0.04;0.97
0.08;0.09;1.43
0.05;0.01;1.07
-0.00;0.00;1.01
-0.02;-0.00;1.01
-0.07;-0.03;1.01
-0.03;-0.03;1.01
-0.00;-0.02;1.01
-0.12;0.01;1.01
-0.05;-0.01;1.03
0.05;0.00;1.04
0.07;-0.02;0.96
0.04;0.00;0.99
0.04;0.00;0.97
0.03;0.00;1.01
0.03;-0.00;1.01
0.03;0.01;1.00
-0.02;0.00;1.04
-0.05;-0.00;0.97
-0.04;-0.03;0.82
-0.19;-0.03;1.20
0.03;-0.08;0.99
-0.05;-0.01;1.03
0.03;0.01;0.99
0.05;-0.01;1.02
-0.00;-0.01;0.97
0.02;-0.03;1.02
0.02;0.01;0.99
0.01;-0.00;1.00
0.01;0.00;1.01
0.01;-0.01;1.00
-0.06;-0.02;1.02
0.00;-0.02;0.91
-0.03;-0.02;1.06
-0.03;-0.04;1.04
-0.10;0.01;1.02
0.03;-0.01;1.02
0.09;-0.06;0.91
0.04;-0.02;1.10
0.08;0.00;1.01
-0.01;-0.01;1.01
-0.00;0.00;1.04
0.01;-0.03;1.02
-0.05;-0.04;1.00
0.02;-0.00;1.00
-0.04;-0.00;0.99
-0.02;-0.00;1.02
-0.01;-0.01;1.00
0.02;-0.02;1.00
0.00;-0.01;1.00
0.02;-0.01;1.00
-0.02;0.00;1.00
0.06;-0.01;1.00
-0.00;0.00;1.00
0.05;0.01;1.00
-0.03;-0.01;1.03
-0.06;-0.00;1.08
0.00;-0.03;0.95
-0.02;-0.05;0.96
-0.14;-0.03;1.07
0.03;-0.06;0.98
-0.09;-0.00;1.04
-0.07;-0.01;1.08
0.07;-0.03;0.91
0.00;-0.04;0.95
-0.00;0.05;1.04
0.03;-0.01;1.02
0.04;-0.01;1.03
-0.05;-0.00;1.14
0.00;-0.00;0.98
0.02;-0.01;0.98
-0.03;-0.02;0.93
-0.12;0.02;0.85
-0.12;-0.00;1.71
0.04;-0.07;1.07
0.01;0.01;1.04
0.04;0.01;0.93
0.04;0.01;0.96
0.01;0.02;1.01
0.01;-0.01;1.06
0.03;0.00;1.00
-0.06;-0.02;1.05
-0.07;0.00;1.03
-0.03;-0.05;0.96
-0.06;-0.01;1.01
-0.07;-0.03;0.99
-0.12;0.01;1.03
-0.00;-0.04;0.96
0.04;0.02;0.96
0.05;0.04;1.02
-0.01;-0.01;1.00
0.06;-0.01;0.99
0.06;-0.00;1.01
0.00;-0.00;1.02
0.07;-0.06;1.04
-0.08;0.00;1.00
-0.02;-0.01;1.00
-0.08;-0.02;1.01
-0.12;-0.00;1.07
-0.15;0.13;1.03
0.09;-0.08;0.94
0.08;-0.04;0.95
0.03;-0.03;0.96
0.03;0.03;1.02
-0.01;0.03;0.97
0.01;-0.01;1.03
0.00;0.00;1.01
0.11;-0.09;1.04
-0.13;0.00;1.17
0.01;0.01;0.83
-0.01;-0.05;0.90
-0.12;0.05;0.78
-0.04;-0.04;1.10
-0.06;0.05;1.04
0.08;0.01;0.99
0.05;0.01;0.96
0.06;0.02;1.01
0.05;-0.00;1.00
0.05;-0.01;0.99
0.12;-0.09;1.11
-0.09;0.00;1.10
-0.02;0.00;0.83
-0.09;-0.05;0.93
-0.15;0.02;0.81
-0.04;-0.04;1.11
-0.03;0.02;1.10
0.13;-0.01;0.92
0.11;-0.00;0.96
0.08;-0.00;1.04
0.08;-0.01;1.03
0.02;0.01;1.01
-0.02;-0.01;1.01
-0.06;-0.02;1.04
-0.05;-0.03;1.00
-0.02;-0.01;1.00
-0.05;-0.03;1.01
-0.02;-0.02;1.00
0.06;0.00;1.00
0.03;0.01;1.00
0.08;-0.03;1.01
0.04;-0.03;1.00
0.00;-0.02;1.00
0.00;-0.02;1.00
0.01;-0.02;1.02
-0.04;0.00;1.01
-0.03;0.01;1.00
-0.05;-0.05;1.01
-0.10;-0.03;1.01
-0.01;-0.01;1.07
0.03;0.01;1.02
0.03;0.01;0.98
0.05;-0.03;1.03
0.03;-0.00;0.98
-0.00;-0.02;1.02
-0.05;0.03;1.03
-0.01;-0.03;1.00
-0.06;-0.02;1.03
-0.06;-0.03;1.00
-0.09;0.05;1.02
0.10;-0.01;0.94
0.02;0.02;0.96
0.02;-0.01;1.00
0.02;-0.01;0.96
0.00;-0.02;1.03
-0.03;0.02;1.00
-0.04;-0.01;1.03
-0.02;0.00;1.02
0.01;-0.05;1.00
-0.11;-0.01;1.05
0.01;-0.03;0.98
0.05;0.02;1.01
0.06;0.01;0.97
-0.03;-0.01;1.01
-0.03;-0.00;1.02
-0.02;-0.01;0.99
-0.07;-0.01;1.04
-0.02;-0.01;1.01
-0.06;-0.00;1.01
-0.02;-0.00;0.96
0.02;0.01;0.98
0.04;-0.01;0.98
0.01;-0.01;1.04
-0.03;-0.01;1.01
-0.02;-0.01;1.01
-0.03;-0.00;1.01
-0.09;-0.00;1.02
-0.10;-0.00;1.02
-0.05;-0.01;1.03
-0.06;-0.01;0.98
0.05;-0.04;0.92
0.09;-0.03;0.99
0.01;-0.11;0.93
0.01;-0.04;0.93
-0.03;0.06;1.02
-0.05;0.04;1.02
-0.01;-0.04;0.99
-0.06;-0.02;1.05
-0.03;-0.06;1.04
0.00;-0.01;0.97
0.04;0.01;0.98
0.00;0.07;0.91
0.04;0.03;0.93
0.09;-0.05;0.95
-0.01;-0.01;1.03
-0.08;-0.04;1.00
-0.07;-0.02;1.00
-0.20;0.03;1.14
-0.10;0.03;1.04
-0.00;-0.02;0.95
0.15;-0.04;0.88
0.07;-0.02;0.84
0.03;0.02;1.47
-0.09;-0.03;1.06
-0.12;-0.06;1.06
-0.11;0.01;0.99
0.03;0.09;1.01
0.05;0.04;1.01
0.01;0.01;1.01
-0.06;-0.00;1.04
-0.10;-0.04;0.98
-0.05;-0.04;1.00
0.07;-0.04;1.00
-0.01;-0.02;0.94
-0.05;-0.01;1.01
-0.10;0.03;0.99
0.00;0.06;1.06
0.01;0.04;1.00
0.04;-0.06;0.95
0.15;-0.11;0.93
0.13;-0.07;0.97
-0.02;-0.00;1.06
-0.07;0.05;1.03
-0.04;0.05;1.01
-0.11;0.08;1.01
-0.12;-0.04;1.01
-0.06;-0.07;1.03
-0.06;-0.00;1.00
-0.06;0.02;1.05
0.01;0.03;0.98
0.02;0.07;1.00
0.01;0.07;0.96
0.06;-0.07;0.91
0.04;-0.02;1.12
0.04;-0.06;0.99
0.16;-0.03;0.90
-0.08;0.03;0.97
-0.05;0.00;1.00
-0.14;0.06;1.09
-0.27;0.27;1.08
-0.10;0.01;0.95
0.15;-0.12;0.89
0.19;-0.20;0.89
0.16;0.12;1.75
0.27;-0.03;1.21
-0.16;0.02;1.18
-0.09;0.08;0.83
-0.18;0.04;0.81
-0.28;0.03;1.22
-0.10;0.12;1.09
-0.06;0.00;0.92
0.01;-0.00;0.93
0.07;-0.06;0.95
0.16;-0.06;1.18
0.13;-0.09;1.04
0.05;-0.07;1.01
-0.00;0.00;1.01
-0.07;0.05;1.00
-0.00;0.04;1.03
0.02;-0.00;1.01
-0.03;-0.01;1.01
0.01;-0.04;1.01
-0.11;0.01;1.04
-0.10;-0.00;1.04
-0.02;-0.02;0.95
-0.00;-0.03;0.92
0.03;-0.02;0.95
0.05;-0.07;0.95
0.03;0.03;1.13
-0.01;0.01;1.01
0.02;-0.00;1.00
-0.04;-0.03;1.02
-0.05;-0.02;0.98
-0.07;-0.03;1.04
-0.05;-0.00;1.01
-0.06;0.01;1.01
-0.03;0.08;1.15
-0.02;0.02;0.96
-0.06;-0.01;0.95
0.06;-0.05;0.94
0.03;-0.05;1.00
0.13;0.01;1.41
-0.00;-0.03;1.04
0.03;-0.03;1.05
0.05;-0.06;1.02
-0.06;-0.04;0.98
-0.01;0.04;1.00
0.01;0.04;0.99
-0.04;0.02;1.03
-0.02;0.03;1.00
-0.05;-0.00;1.02
-0.03;0.02;0.98
-0.01;-0.04;0.98
-0.03;-0.03;1.02
0.03;-0.02;1.00
0.06;-0.06;1.03
-0.01;0.01;1.01
-0.03;-0.01;1.00
0.03;0.01;1.00
0.01;-0.01;1.01
0.01;-0.02;1.00
0.02;-0.03;1.00
-0.01;-0.01;1.01
-0.03;-0.00;1.00
-0.01;0.02;1.00
-0.02;0.00;0.95
-0.01;-0.02;1.02
0.05;-0.04;1.04
0.16;-0.04;0.95
-0.07;-0.04;1.15
0.05;-0.10;0.87
0.00;-0.08;0.97
-0.00;-0.05;0.93
0.03;-0.02;0.91
0.13;0.03;1.07
0.09;0.08;0.99
-0.09;0.10;1.06
-0.04;0.05;1.02
0.01;-0.06;0.97
-0.02;-0.09;1.02
-0.01;-0.01;0.99
-0.04;-0.03;0.93
-0.11;0.02;1.12
0.03;-0.03;0.89
-0.02;-0.02;0.98
-0.05;-0.01;1.05
-0.01;-0.05;1.03
-0.02;-0.00;1.01
0.01;-0.01;1.01
0.03;0.06;1.06
0.02;0.03;0.98
-0.03;-0.03;0.99
0.05;-0.05;0.96
-0.01;0.01;1.04
0.05;-0.02;0.98
0.09;-0.06;1.12
-0.07;-0.05;1.17
0.00;-0.05;0.96
0.02;-0.04;0.95
0.02;0.02;0.87
0.00;0.01;0.86
-0.06;-0.00;0.85
-0.22;0.04;1.54
0.03;0.03;1.11
-0.00;0.04;0.94
0.03;0.00;0.98
0.06;-0.01;0.99
0.06;-0.01;1.01
0.12;-0.05;0.94
-0.05;-0.00;1.01
-0.00;-0.01;0.89
-0.05;-0.02;0.97
-0.02;-0.01;0.94
-0.01;-0.02;1.07
-0.00;-0.01;1.01
-0.04;-0.01;1.03
-0.00;0.06;1.06
0.02;-0.05;0.97
0.01;-0.06;0.93
0.06;-0.06;0.93
0.15;0.05;1.31
0.06;0.02;1.04
0.00;-0.01;1.03
0.10;-0.06;1.08
-0.12;-0.00;1.02
-0.05;-0.01;0.87
0.02;-0.02;1.04
-0.03;-0.02;1.05
-0.09;0.00;0.96
0.02;0.03;1.08
0.00;-0.00;0.95
0.02;-0.01;0.98
0.03;-0.01;0.99
0.01;0.00;0.98
0.01;-0.04;1.05
0.05;-0.01;0.99
0.07;-0.03;0.90
-0.07;-0.00;1.04
0.02;0.00;0.88
-0.01;-0.02;0.95
-0.07;0.01;0.87
0.07;-0.09;1.08
0.05;-0.02;1.04
0.05;-0.02;0.99
0.03;0.00;0.99
0.05;-0.00;1.00
0.05;-0.00;1.01
-0.04;-0.01;1.03
-0.02;0.01;0.94
0.03;-0.02;0.96
-0.01;-0.01;1.01
0.00;-0.02;1.00
-0.04;-0.01;1.00
-0.03;-0.00;1.01
-0.11;0.07;1.00
0.05;0.00;1.04
-0.02;-0.02;0.94
-0.00;0.01;0.98
0.04;-0.01;1.03
0.04;0.00;1.00
0.10;-0.06;1.00
-0.06;-0.02;1.02
0.04;0.02;0.92
-0.06;-0.02;1.07
0.00;-0.05;1.02
-0.10;-0.00;1.04
-0.10;0.03;1.04
0.04;-0.03;0.93
0.00;0.00;0.94
0.07;-0.02;0.94
0.05;-0.03;0.94
-0.00;-0.01;1.03
0.01;-0.02;1.02
0.05;-0.03;1.09
-0.05;-0.01;0.99
-0.04;-0.02;0.99
0.01;0.01;1.00
-0.02;-0.00;1.00
-0.08;-0.01;1.03
-0.10;-0.00;1.01
0.01;-0.01;1.02
0.04;-0.03;0.96
-0.04;0.02;1.01
0.01;0.00;1.04
0.03;-0.00;0.99
-0.05;-0.03;1.06
-0.04;-0.00;1.12
0.03;-0.01;1.00
0.01;-0.01;0.98
0.02;-0.04;0.86
-0.02;0.01;0.82
-0.11;0.00;2.11
0.12;-0.07;1.14
0.02;-0.02;0.95
0.09;-0.04;0.99
0.05;-0.01;1.00
0.07;-0.02;1.03
0.07;-0.02;1.07
-0.04;-0.01;1.07
0.05;-0.02;1.00
-0.01;-0.01;1.03
-0.00;-0.01;0.90
-0.01;-0.00;0.93
-0.11;0.04;0.83
-0.11;-0.02;1.09
-0.07;0.02;1.13
0.01;-0.05;0.91
0.00;-0.01;0.93
0.02;-0.02;0.96
0.11;0.03;1.18
0.01;-0.01;1.06
0.02;-0.02;1.03
-0.01;-0.00;0.98
-0.05;-0.04;1.03
-0.00;0.00;1.01
-0.13;0.00;1.02
-0.10;-0.01;1.04
0.03;-0.03;0.97
-0.05;-0.01;0.95
0.03;-0.01;0.97
0.02;-0.02;0.95
0.05;-0.03;0.97
0.11;-0.03;0.95
-0.03;0.02;1.14
0.03;0.01;0.98
-0.02;0.00;1.02
-0.15;-0.00;1.00
-0.01;-0.06;1.01
-0.09;0.01;1.05
-0.10;0.02;1.04
0.04;-0.01;1.06
0.06;-0.02;0.99
0.01;-0.02;0.99
0.03;-0.03;0.99
0.01;-0.02;0.99
0.03;-0.02;0.99
-0.02;0.00;1.03
-0.02;0.00;0.98
0.01;0.01;1.00
0.11;-0.08;0.95
-0.08;-0.00;1.08
0.02;-0.03;0.83
-0.02;0.01;0.90
-0.08;-0.05;1.02
-0.12;-0.01;1.06
-0.01;-0.03;0.98
-0.02;-0.04;0.91
0.01;-0.02;0.94
0.06;0.00;0.91
0.05;-0.03;0.96
0.09;-0.02;0.97
0.02;-0.00;1.01
0.02;0.02;1.04
-0.08;-0.00;1.00
-0.04;-0.02;1.02
-0.09;-0.04;0.99
-0.11;0.00;1.04
-0.13;0.03;1.05
-0.05;0.01;0.99
-0.06;-0.01;0.97
0.00;-0.02;0.95
-0.01;-0.03;0.96
0.05;-0.07;0.94
0.02;-0.05;0.94
0.02;-0.00;1.00
0.00;0.00;0.99
-0.06;-0.00;1.01
-0.05;0.04;0.92
-0.04;-0.01;1.03
0.04;-0.04;1.06
-0.06;-0.04;0.97
-0.00;-0.04;1.02
-0.07;-0.00;0.99
-0.09;0.14;1.31
-0.03;0.01;1.00
0.02;-0.03;0.94
0.03;-0.02;0.95
0.03;-0.04;0.95
0.03;-0.04;0.96
0.06;-0.04;0.97
0.01;-0.01;0.97
-0.01;-0.00;0.98
0.05;0.02;1.19
-0.12;0.01;1.05
-0.15;-0.00;1.00
-0.03;-0.03;0.91
-0.07;0.01;1.00
-0.12;0.06;1.02
0.02;0.03;1.16
0.07;-0.06;0.96
0.08;-0.10;0.97
0.10;-0.10;0.95
0.09;-0.08;0.97
0.04;-0.02;0.96
-0.01;0.01;0.99
-0.09;0.05;0.98
-0.07;0.03;1.01
-0.11;-0.02;1.02
-0.01;-0.00;0.98
-0.06;-0.01;1.03
-0.06;0.01;1.02
-0.18;0.14;1.04
0.02;0.03;1.06
0.03;-0.01;0.94
0.01;-0.07;0.95
0.08;-0.08;0.96
0.04;-0.04;0.99
0.10;0.04;1.34
-0.04;0.02;1.04
-0.01;0.02;1.03
-0.14;0.03;1.23
-0.03;0.02;0.85
-0.04;-0.01;0.91
-0.17;0.06;0.81
-0.05;-0.06;0.91
-0.06;0.01;0.99
0.04;-0.02;1.05
0.11;-0.06;0.96
0.04;-0.07;0.97
0.09;-0.03;0.97
0.05;0.02;1.03
-0.00;0.03;1.04
-0.02;0.02;1.01
-0.08;-0.00;1.04
-0.12;-0.03;1.01
-0.13;0.03;1.01
-0.06;0.03;1.01
-0.08;0.04;1.01
-0.04;0.05;1.00
0.04;-0.02;0.95
0.10;-0.10;0.94
0.12;-0.13;0.94
0.10;-0.03;0.99
0.02;-0.03;1.02
-0.05;0.00;1.01
-0.12;0.02;1.01
-0.11;0.05;1.01
-0.13;0.05;1.00
-0.12;0.05;1.01
-0.08;0.03;1.01
0.06;-0.02;1.00
0.09;-0.04;1.01
0.17;-0.17;0.99
0.15;-0.08;1.01
0.07;-0.05;1.01
0.16;-0.06;1.14
-0.09;-0.03;1.12
-0.08;0.01;0.90
-0.13;0.06;0.90
-0.19;-0.04;0.88
-0.04;-0.04;0.90
-0.05;0.19;1.20
0.08;0.08;0.99
0.16;-0.07;0.92
0.18;-0.13;0.90
0.17;-0.12;0.94
0.16;-0.03;1.38
-0.14;-0.03;1.07
-0.08;-0.01;1.03
-0.16;0.05;1.00
-0.11;0.15;1.00
-0.12;0.10;1.00
-0.12;0.05;1.01
-0.08;0.03;1.01
0.06;-0.05;1.05
0.16;-0.09;1.01
0.17;-0.18;0.95
0.19;-0.09;0.99
0.02;-0.03;1.04
-0.01;-0.01;1.01
-0.18;0.06;1.11
-0.16;0.11;1.05
-0.08;0.05;0.98
-0.04;0.04;0.97
-0.01;0.04;0.98
-0.05;0.07;0.89
0.01;-0.01;0.95
0.09;-0.06;0.99
0.22;-0.10;0.97
0.32;-0.09;1.00
0.38;-0.16;1.26
-0.00;-0.06;1.08
-0.06;-0.05;0.86
-0.18;0.04;0.89
-0.19;0.10;0.90
-0.21;0.09;0.98
-0.15;0.12;1.60
-0.05;0.05;1.08
-0.09;0.04;1.01
0.05;0.03;1.18
0.24;-0.14;0.94
0.26;-0.20;0.90
0.28;-0.20;0.93
0.12;-0.11;0.95
-0.09;0.09;1.13
-0.14;0.06;1.02
-0.17;0.14;1.01
-0.17;0.11;1.01
-0.14;0.03;1.01
-0.12;0.07;1.02
-0.08;0.04;1.03
0.08;0.04;1.08
0.14;-0.05;0.96
0.16;-0.18;0.97
0.16;-0.23;0.95
0.16;-0.05;1.01
0.04;-0.05;1.02
-0.04;-0.01;1.01
-0.05;0.01;1.01
-0.12;0.07;1.01
-0.10;0.07;1.01
-0.11;0.04;1.01
-0.12;0.12;1.10
-0.10;0.10;1.08
0.03;-0.01;0.96
0.11;-0.08;0.94
0.09;-0.16;0.92
0.11;-0.13;0.95
0.04;-0.04;1.01
-0.01;-0.01;1.02
-0.05;0.01;1.01
-0.09;0.05;1.04
-0.07;0.05;1.00
-0.05;0.03;1.01
-0.13;0.02;1.02
-0.24;0.10;1.34
-0.19;0.07;1.09
-0.07;-0.05;0.93
0.04;-0.09;0.89
0.13;-0.12;0.88
0.12;-0.12;0.92
0.16;-0.07;0.94
0.16;-0.04;0.96
0.08;-0.02;1.11
0.18;0.28;0.72
0.13;0.06;1.09
-0.17;0.03;1.19
-0.23;-0.01;1.27
-0.11;-0.03;1.03
-0.18;0.02;0.99
0.01;-0.00;0.94
-0.02;-0.02;0.90
0.08;-0.10;0.95
0.09;-0.07;0.94
0.06;-0.01;1.01
-0.00;0.00;1.01
-0.08;0.01;0.99
-0.04;-0.02;0.99
-0.04;-0.00;1.01
-0.02;-0.02;1.01
-0.02;-0.02;1.01
-0.00;-0.05;1.01
-0.03;-0.06;1.03
0.02;-0.02;1.00
0.01;-0.01;0.95
0.03;-0.01;0.97
0.06;-0.08;0.93
0.04;0.07;1.04
-0.02;0.08;1.01
-0.02;0.00;1.00
0.03;-0.00;1.00
-0.01;0.03;1.01
0.00;-0.06;1.01
-0.11;-0.03;1.01
-0.05;-0.03;1.02
-0.05;-0.01;1.03
-0.02;0.05;1.23
-0.03;-0.02;0.97
-0.01;-0.02;0.95
-0.01;-0.01;0.96
0.03;-0.02;0.96
0.04;-0.05;0.96
0.12;-0.05;0.98
0.08;-0.04;0.99
0.00;0.01;0.94
-0.02;0.03;1.04
-0.14;0.03;1.00
-0.19;-0.02;1.04
-0.10;0.00;1.07
-0.17;0.04;1.00
-0.09;0.02;0.98
-0.02;0.00;0.93
0.04;-0.02;0.94
0.04;-0.06;0.99
0.10;-0.09;1.00
-0.04;-0.02;1.00
-0.01;0.03;0.99
-0.01;0.04;0.99
-0.06;-0.00;1.04
-0.03;-0.03;1.01
-0.11;0.03;1.03
-0.06;-0.01;1.02
-0.09;-0.04;1.05
-0.09;0.03;1.02
0.08;0.02;0.95
0.07;-0.01;0.94
0.02;-0.06;0.93
0.04;-0.08;0.95
-0.03;0.04;1.08
-0.05;0.03;1.00
-0.02;0.01;1.00
-0.01;0.02;1.00
-0.02;0.02;1.00
-0.01;-0.02;1.00
-0.02;-0.07;1.02
-0.04;-0.04;1.02
-0.11;0.04;1.04
0.04;-0.02;1.01
0.01;-0.02;0.99
0.02;-0.01;0.99
0.05;-0.01;0.97
0.07;-0.04;0.98
0.01;-0.04;0.96
-0.06;0.01;1.00
-0.11;0.05;1.03
-0.14;0.12;1.07
-0.13;0.04;1.03
-0.13;0.04;1.01
-0.06;0.02;0.99
-0.03;-0.01;0.99
0.04;-0.06;0.99
0.08;-0.10;1.02
0.03;-0.04;1.00
0.04;-0.08;1.00
0.07;-0.04;1.00
0.03;-0.02;1.00
-0.02;0.02;1.00
-0.03;0.02;0.99
-0.04;0.04;1.02
-0.08;0.04;1.01
-0.09;0.01;1.01
-0.10;0.04;1.02
-0.14;0.15;1.04
0.02;-0.00;0.98
0.00;-0.03;0.97
0.05;-0.10;0.95
0.12;-0.11;1.00
0.04;-0.02;0.92
0.01;0.02;1.10
-0.08;0.01;1.01
-0.07;0.01;1.00
-0.10;0.00;1.04
-0.10;-0.04;0.94
-0.16;0.05;0.99
-0.07;0.03;1.03
-0.08;-0.05;1.06
0.04;-0.03;0.97
0.04;-0.06;0.94
0.11;-0.07;0.93
0.14;-0.09;0.97
0.17;-0.08;1.00
0.11;-0.04;0.91
-0.07;0.05;0.53
-0.20;0.14;1.51
-0.17;0.08;1.05
-0.13;-0.01;1.01
-0.08;0.01;1.01
-0.03;-0.03;1.00
-0.07;0.01;1.01
-0.06;0.09;1.01
0.06;-0.02;1.06
0.09;-0.09;0.96
0.03;-0.05;0.96
0.07;-0.04;0.96
0.11;0.03;1.26
-0.07;0.02;1.07
-0.03;0.04;1.02
-0.08;-0.00;0.99
-0.11;-0.01;1.11
-0.02;-0.05;0.92
-0.07;0.03;0.96
-0.05;0.03;0.90
0.02;-0.05;1.04
0.02;-0.01;1.03
0.07;-0.02;1.01
0.10;-0.06;0.96
0.04;-0.04;0.94
0.08;-0.00;1.04
0.00;-0.01;1.00
0.01;-0.00;1.02
0.09;-0.09;1.08
-0.10;-0.01;1.12
0.00;-0.01;0.93
-0.05;0.03;0.92
-0.02;0.01;0.89
-0.07;-0.01;1.26
-0.12;0.01;1.20
0.00;0.01;0.98
0.05;-0.01;0.89
0.13;-0.04;0.89
0.10;-0.08;0.91
0.12;0.05;1.57
0.09;-0.01;1.16
-0.02;-0.02;1.05
-0.11;0.01;1.07
-0.13;0.02;0.98
-0.09;-0.03;1.01
-0.13;0.01;1.01
-0.08;-0.01;1.03
-0.04;0.07;1.11
0.01;-0.03;0.98
0.00;-0.02;0.98
0.06;-0.02;0.94
0.05;-0.02;0.94
0.07;-0.03;0.97
0.04;-0.01;0.98
-0.06;0.04;1.10
-0.01;0.01;1.02
-0.04;-0.02;1.01
-0.04;-0.02;1.01
-0.04;-0.01;1.01
-0.09;0.01;1.00
-0.04;0.00;1.01
-0.02;-0.01;0.97
0.01;0.00;1.01
0.01;0.00;0.99
0.00;-0.01;1.00
0.03;-0.01;1.01
-0.01;-0.00;1.01
-0.03;0.00;1.04
-0.03;-0.00;1.01
0.00;-0.01;1.00
-0.02;0.01;1.01
0.01;-0.04;1.01
-0.05;0.01;1.06
-0.01;0.02;1.01
0.02;-0.01;0.97
0.02;-0.03;0.96
0.02;-0.03;0.94
0.05;-0.01;0.94
0.03;0.03;1.00
-0.04;-0.00;1.01
-0.05;-0.05;1.04
0.01;-0.02;1.01
-0.04;-0.07;1.01
-0.00;-0.06;1.01
-0.11;-0.01;1.01
-0.06;-0.00;1.00
0.03;0.04;1.14
0.01;-0.02;0.97
0.05;-0.03;0.94
0.07;-0.08;1.00
0.12;-0.11;0.96
0.05;0.05;0.99
0.18;0.14;1.47
-0.10;0.06;1.05
0.02;0.04;1.06
-0.11;-0.08;0.97
-0.26;0.03;1.42
-0.00;-0.10;1.09
-0.09;-0.03;1.01
-0.09;-0.05;1.02
0.00;-0.05;0.99
0.01;-0.03;0.96
0.05;0.05;0.96
0.04;-0.04;0.95
0.06;0.02;0.99
0.03;-0.03;1.00
0.09;-0.01;1.09
-0.19;-0.02;1.08
-0.04;-0.09;0.91
-0.06;-0.03;0.98
-0.08;0.07;0.98
0.01;-0.10;1.09
-0.01;-0.11;1.04
-0.01;-0.06;1.00
0.02;-0.06;0.99
0.03;-0.01;0.95
0.03;-0.02;0.92
0.03;-0.01;0.98
0.03;0.08;1.25
-0.13;-0.04;1.05
-0.05;-0.03;1.05
0.02;-0.04;1.03
-0.05;-0.03;0.97
-0.01;-0.01;0.88
-0.13;0.16;1.66
0.00;-0.05;1.19
-0.04;-0.07;0.91
-0.01;-0.13;1.05
0.05;-0.02;0.93
0.04;0.03;0.94
0.06;0.10;1.02
0.05;0.07;1.21
-0.12;-0.03;1.01
-0.06;-0.04;1.09
-0.04;-0.05;0.91
-0.03;-0.07;0.92
-0.11;0.05;1.01
0.01;-0.05;0.98
-0.02;-0.10;0.99
0.02;-0.07;0.96
0.02;-0.03;0.96
0.03;0.03;0.96
0.03;-0.01;0.96
0.05;0.08;1.24
0.03;0.11;1.01
-0.06;-0.07;1.10
-0.04;-0.05;1.09
-0.04;-0.03;0.90
-0.07;-0.06;0.94
-0.35;0.07;1.52
-0.03;-0.01;1.20
-0.09;-0.08;1.04
0.05;-0.08;0.96
0.04;-0.05;0.94
0.05;0.03;0.97
0.04;0.01;0.96
0.02;0.00;1.00
0.00;0.02;1.00
0.03;0.04;0.97
-0.05;0.10;1.03
-0.14;-0.05;1.15
-0.07;-0.03;1.10
-0.06;-0.08;0.86
-0.11;-0.03;0.95
-0.05;0.02;1.29
-0.12;0.00;1.00
-0.10;-0.04;1.01
-0.02;-0.03;0.97
0.02;-0.00;0.93
0.05;0.03;0.94
0.03;0.02;0.95
0.05;-0.08;0.98
0.01;-0.08;1.02
-0.03;0.10;0.81
-0.03;0.00;1.02
0.01;0.10;1.06
-0.16;-0.01;1.00
-0.03;-0.06;0.92
-0.06;-0.06;0.97
-0.25;-0.10;1.16
-0.04;-0.02;1.10
-0.07;-0.05;1.05
-0.05;-0.02;1.01
0.01;-0.01;0.99
0.04;0.07;0.89
0.11;-0.05;0.84
0.08;-0.07;0.93
0.06;-0.12;1.28
-0.06;0.07;1.00
-0.12;0.28;0.76
-0.08;0.08;1.17
-0.11;-0.01;1.01
-0.17;-0.17;1.10
-0.05;-0.04;1.01
-0.05;-0.03;1.08
-0.07;-0.07;1.04
-0.06;-0.07;1.02
0.04;0.45;1.03
0.10;0.06;0.84
0.04;-0.01;0.99
0.03;-0.05;0.96
0.06;0.06;0.83
-0.08;-0.04;1.17
0.11;-0.01;0.95
-0.15;-0.03;1.12
0.00;-0.01;0.92
-0.04;-0.04;0.90
-0.02;-0.02;0.85
-0.09;-0.01;0.85
-0.35;-0.13;1.90
0.07;-0.07;0.94
0.06;-0.10;1.03
0.08;0.02;0.94
0.04;0.05;0.97
0.02;-0.04;0.98
0.03;-0.03;0.97
0.04;0.04;1.00
-0.03;0.09;1.05
-0.12;-0.02;1.22
0.00;-0.03;0.83
-0.06;-0.03;0.82
-0.06;0.00;0.88
-0.19;-0.00;0.80
0.02;-0.04;1.30
-0.10;-0.06;1.01
-0.01;-0.07;0.96
0.02;-0.05;0.94
0.02;0.00;0.94
0.07;0.03;1.00
0.04;-0.06;0.97
0.05;-0.04;0.94
0.00;0.10;1.00
0.07;0.23;0.78
-0.08;-0.07;1.15
-0.03;-0.10;0.80
-0.15;0.01;1.34
-0.06;-0.07;1.06
-0.10;-0.04;1.11
-0.05;-0.07;1.00
-0.03;-0.05;0.99
0.01;-0.03;0.93
-0.02;-0.04;0.96
0.05;-0.01;0.95
0.02;-0.05;0.96
0.03;-0.00;1.02
-0.01;0.11;0.98
0.07;0.02;0.97
-0.01;-0.06;1.02
-0.02;-0.04;0.88
-0.03;-0.06;0.93
-0.18;0.03;0.79
-0.08;-0.02;1.35
-0.17;-0.04;1.06
-0.07;-0.01;0.94
0.04;-0.01;0.89
0.06;-0.00;0.92
0.07;0.02;0.93
-0.00;-0.06;0.98
0.02;-0.04;0.99
0.02;-0.00;0.99
0.07;-0.04;0.90
0.01;-0.06;0.80
0.09;0.03;1.58
-0.03;-0.05;1.11
-0.09;-0.05;0.65
-0.08;-0.10;0.84
-0.07;-0.05;1.51
-0.20;-0.05;1.11
-0.08;-0.04;0.93
0.04;-0.03;0.87
0.12;0.16;0.96
0.09;-0.01;0.92
0.05;-0.05;1.03
0.04;-0.13;0.99
0.02;-0.01;0.94
0.05;-0.01;0.96
-0.01;0.02;0.97
-0.17;-0.05;1.10
-0.15;-0.03;0.90
-0.19;0.03;1.14
-0.12;0.10;0.95
-0.18;-0.07;1.21
-0.20;-0.04;1.10
-0.04;-0.03;0.94
-0.00;-0.04;0.91
0.02;-0.04;0.95
-0.01;-0.10;1.01
0.04;0.10;1.22
0.01;-0.01;1.02
0.03;0.00;1.00
0.03;0.01;0.87
-0.14;-0.06;1.12
-0.04;-0.02;0.77
-0.14;0.01;0.75
0.04;0.12;1.03
-0.07;-0.06;1.14
-0.12;-0.07;1.02
-0.02;-0.02;0.95
0.03;-0.02;0.94
0.03;-0.06;0.95
-0.02;-0.13;0.98
-0.02;-0.02;1.03
0.04;-0.05;1.02
0.05;-0.02;0.97
-0.01;-0.01;0.94
-0.07;-0.07;0.92
-0.10;-0.03;0.60
-0.07;0.11;1.03
-0.12;0.13;0.94
-0.15;-0.05;1.14
-0.07;-0.02;0.92
0.00;-0.03;0.87
0.02;-0.02;0.90
0.02;-0.09;1.03
-0.01;-0.04;1.00
-0.00;0.03;0.95
-0.04;0.01;0.98
0.03;-0.01;1.01
-0.02;-0.02;0.97
-0.04;0.00;0.97
-0.06;0.03;1.01
-0.07;0.04;1.02
-0.10;0.06;0.96
-0.12;-0.03;1.13
-0.06;-0.02;0.99
0.01;-0.04;0.96
0.01;-0.10;0.96
0.06;0.09;1.14
-0.06;-0.08;1.10
0.02;-0.01;0.99
0.03;-0.02;0.98
-0.01;-0.05;1.12
-0.10;-0.07;1.11
-0.04;0.03;0.47
-0.00;0.25;1.63
-0.12;0.00;1.11
-0.08;-0.04;0.99
0.01;-0.03;0.96
0.03;-0.02;0.94
0.01;-0.02;1.01
-0.02;-0.04;1.00
0.01;-0.02;0.98
-0.01;-0.02;0.97
-0.00;-0.04;0.95
-0.04;0.27;1.85
0.14;0.01;1.23
-0.10;-0.01;1.02
-0.03;-0.04;1.01
-0.12;0.01;1.06
0.00;0.03;1.11
-0.04;0.00;1.02
0.00;0.00;0.96
0.03;-0.02;0.96
0.04;-0.07;1.00
0.00;-0.08;1.01
0.04;-0.04;0.96
0.02;-0.03;0.93
0.01;0.10;1.40
0.08;0.02;1.07
-0.07;-0.04;1.02
-0.05;-0.06;1.01
-0.08;0.03;1.03
-0.06;0.11;1.10
-0.03;0.09;0.93
-0.08;-0.04;1.00
0.00;-0.04;1.00
0.01;-0.02;0.95
0.05;-0.04;0.96
0.03;-0.04;1.07
0.03;-0.07;1.04
0.03;-0.02;0.96
0.04;-0.01;0.94
-0.16;0.11;1.76
0.09;0.01;1.12
-0.13;-0.04;1.02
-0.05;0.01;1.01
-0.12;0.10;1.19
-0.11;0.01;0.99
-0.05;-0.01;0.99
0.03;0.07;0.87
0.11;-0.04;1.11
-0.01;-0.15;0.99
0.03;-0.05;1.00
0.03;-0.04;1.02
0.04;-0.00;1.00
0.03;-0.01;0.90
-0.03;-0.01;0.89
-0.37;0.03;2.01
-0.00;0.08;1.09
-0.10;-0.07;1.05
-0.14;-0.04;1.03
-0.13;-0.06;1.01
-0.05;-0.08;0.95
-0.02;-0.06;0.93
0.08;0.12;0.98
0.00;0.03;0.90
0.05;-0.05;1.01
0.01;0.08;1.11
0.01;-0.00;1.03
-0.00;-0.05;1.05
0.06;-0.01;1.07
0.02;0.00;0.95
-0.05;-0.02;0.83
-0.10;0.01;0.86
-0.30;0.26;1.53
0.08;-0.14;0.98
-0.05;-0.11;0.90
0.02;-0.02;1.09
-0.06;0.01;1.13
0.00;0.00;1.02
0.00;-0.03;0.98
-0.03;-0.05;0.95
0.01;-0.02;0.94
-0.07;0.02;0.94
0.02;-0.04;0.97
-0.05;0.03;1.02
0.01;0.01;0.98
-0.01;-0.02;0.96
-0.00;-0.03;0.96
0.03;-0.04;0.97
0.07;-0.20;1.12
-0.07;0.13;1.07
0.00;0.01;1.04
-0.01;-0.01;1.01
-0.06;-0.06;0.93
0.01;-0.04;0.90
-0.15;-0.08;1.12
-0.08;-0.08;0.91
0.03;0.04;1.15
0.05;0.03;1.00
0.04;-0.03;1.01
0.00;-0.02;1.01
0.02;-0.01;1.00
0.08;-0.01;0.94
-0.00;0.00;1.03
0.02;-0.00;1.03
-0.00;-0.01;1.02
-0.06;-0.00;0.94
-0.06;-0.04;0.85
-0.23;-0.15;1.68
-0.01;-0.01;1.11
-0.03;-0.07;0.97
0.03;-0.01;0.94
0.03;-0.03;0.99
0.03;0.06;0.96
0.06;-0.05;0.90
0.04;0.05;0.96
0.11;-0.02;1.10
-0.06;0.05;1.10
-0.12;0.00;1.02
-0.09;-0.10;0.96
-0.05;-0.03;1.00
-0.23;-0.07;1.05
-0.01;0.01;0.99
-0.10;-0.02;0.99
0.01;-0.07;0.97
0.03;-0.05;0.95
0.04;0.02;0.96
0.05;-0.01;0.94
0.03;0.00;0.99
0.02;0.02;0.99
0.03;0.03;1.20
-0.13;-0.04;1.03
-0.02;-0.05;0.98
-0.04;-0.05;0.95
-0.02;-0.04;0.96
-0.08;-0.09;0.97
-0.06;-0.16;0.92
-0.03;-0.07;1.16
-0.00;-0.04;1.03
0.03;-0.02;0.96
0.06;0.02;0.96
0.07;0.10;0.91
0.08;-0.02;0.98
0.01;0.08;1.11
0.02;-0.04;0.97
-0.05;-0.02;0.99
-0.05;-0.01;1.00
-0.03;-0.02;1.00
-0.03;-0.01;1.03
-0.08;0.00;1.05
-0.08;-0.04;1.03
-0.06;-0.06;1.01
-0.03;-0.06;0.97
0.01;-0.04;0.94
0.02;-0.00;0.96
0.04;0.00;0.94
0.01;0.00;0.95
0.01;0.09;1.16
-0.03;0.10;1.01
-0.06;-0.08;1.06
-0.10;-0.09;1.02
-0.13;-0.01;1.11
-0.12;0.02;1.08
-0.02;-0.08;1.10
-0.06;-0.05;1.11
-0.02;-0.08;1.01
-0.02;-0.07;0.98
0.01;-0.01;0.99
-0.00;0.01;0.98
0.01;0.03;0.99
-0.00;-0.03;1.00
-0.03;0.06;1.01
-0.04;0.00;1.02
-0.04;-0.00;1.03
-0.01;0.01;1.02
-0.03;-0.01;1.00
0.01;-0.02;0.98
-0.01;-0.02;0.98
-0.05;-0.02;0.99
-0.04;-0.03;0.99
-0.05;-0.02;1.01
-0.06;-0.01;1.01
-0.08;-0.04;1.04
-0.10;-0.00;1.01
-0.04;-0.04;0.99
-0.01;-0.05;0.96
-0.02;-0.04;0.96
0.00;-0.03;0.99
0.01;0.05;1.17
-0.00;-0.00;1.03
-0.02;-0.04;1.00
-0.04;0.02;1.00
0.03;-0.02;1.00
-0.03;-0.08;1.08
-0.04;-0.07;1.07
-0.07;-0.05;1.03
0.02;0.10;0.96
0.05;-0.00;0.85
0.04;-0.04;1.00
-0.00;-0.02;0.97
0.02;0.06;0.83
0.01;-0.06;1.11
0.01;0.03;1.03
-0.08;-0.01;0.92
-0.06;-0.03;1.00
-0.02;-0.03;1.01
-0.05;0.02;1.00
-0.10;0.03;1.00
-0.01;-0.10;1.08
-0.02;-0.07;1.00
-0.02;-0.04;1.00
-0.00;-0.02;0.96
-0.00;-0.00;0.97
0.00;-0.01;0.97
0.03;-0.04;1.03
-0.03;0.02;1.08
0.01;0.03;1.01
-0.01;-0.04;1.04
-0.05;-0.06;1.11
-0.01;-0.03;0.94
-0.02;-0.01;0.93
-0.03;-0.02;0.91
-0.09;0.02;0.95
-0.09;0.01;1.09
-0.01;-0.08;0.96
-0.06;-0.04;0.97
0.01;-0.01;0.98
0.00;-0.01;0.99
0.00;0.01;1.00
-0.00;0.01;1.06
-0.01;-0.00;1.00
0.07;-0.06;1.03
-0.07;-0.03;1.06
-0.01;-0.02;1.00
-0.02;-0.00;1.00
-0.10;-0.02;1.02
-0.04;-0.05;1.02
-0.08;-0.05;1.05
-0.02;-0.08;0.99
-0.00;0.01;0.99
0.01;-0.03;0.98
0.02;-0.00;0.99
0.02;-0.02;0.93
0.05;-0.04;1.06
0.09;0.03;1.11
-0.05;0.06;1.01
-0.05;-0.04;1.06
-0.01;-0.04;1.10
0.03;-0.04;1.04
-0.06;-0.01;0.90
-0.08;0.02;0.73
-0.18;0.01;0.83
-0.03;-0.03;1.23
-0.03;-0.14;1.07
-0.02;-0.08;1.00
-0.02;0.10;1.00
-0.02;-0.05;0.97
0.06;0.03;0.95
0.05;-0.09;0.99
0.05;-0.04;0.94
0.09;0.16;0.76
-0.05;0.03;1.32
-0.04;-0.08;1.00
-0.15;-0.03;1.16
-0.04;-0.05;0.82
-0.05;-0.00;0.89
-0.23;0.03;1.51
0.01;-0.08;1.07
-0.02;-0.05;0.92
0.03;-0.02;0.97
0.03;0.02;0.98
0.05;-0.03;0.99
0.01;-0.03;0.99
0.02;0.05;1.08
0.02;0.07;0.98
-0.04;-0.05;1.12
-0.05;-0.05;1.09
-0.03;-0.03;0.97
-0.06;-0.02;0.95
0.01;-0.00;0.96
-0.09;-0.04;0.92
-0.15;0.09;1.59
0.06;-0.08;1.09
-0.00;-0.07;0.98
0.01;-0.05;1.01
0.04;0.02;0.99
0.05;0.04;0.98
0.01;0.00;1.00
0.02;-0.02;1.00
0.04;-0.06;0.98
0.01;-0.06;1.12
0.05;-0.08;0.98
-0.03;-0.03;0.94
-0.00;0.02;0.84
-0.07;0.01;0.91
0.07;-0.06;1.07
0.03;-0.00;1.03
-0.06;0.06;1.02
0.01;0.05;1.04
-0.04;-0.00;1.00
-0.01;-0.03;0.97
0.00;-0.04;0.95
0.05;-0.03;0.96
-0.01;-0.01;0.98
-0.01;-0.01;0.99
0.02;0.03;1.00
0.13;-0.04;1.17
-0.08;-0.03;1.11
-0.01;-0.03;0.81
0.02;-0.05;0.91
-0.08;-0.01;1.10
-0.01;-0.04;1.01
-0.05;0.02;1.00
0.01;0.01;1.01
0.06;-0.01;0.96
0.04;0.01;0.96
-0.13;0.03;1.06
0.00;-0.08;1.05
-0.03;-0.01;1.09
-0.02;-0.08;1.04
-0.05;-0.17;1.10
0.02;-0.02;1.03
0.03;-0.02;1.01
-0.03;-0.01;0.89
0.00;-0.06;0.88
-0.09;0.01;0.93
-0.04;-0.02;0.93
0.02;-0.12;0.84
-0.07;-0.03;0.86
0.05;0.02;0.99
0.01;0.01;0.98
0.02;0.05;0.96
0.05;-0.04;1.00
0.02;0.04;1.15
0.04;-0.00;1.02
-0.07;-0.08;1.13
-0.02;-0.03;1.07
-0.01;-0.03;1.01
-0.05;-0.03;0.92
0.02;-0.02;0.95
-0.15;-0.14;1.35
-0.04;0.04;1.08
-0.01;0.01;0.98
-0.05;0.00;1.00
0.03;-0.03;0.97
-0.01;-0.04;0.96
0.03;-0.02;0.99
0.01;-0.01;0.96
0.02;-0.02;0.98
-0.01;0.01;1.11
-0.11;-0.00;1.07
0.00;-0.00;1.03
0.01;-0.02;1.00
0.00;0.01;0.93
-0.06;0.00;0.92
-0.08;-0.01;0.82
-0.14;0.02;0.89
-0.03;-0.06;1.15
0.02;-0.02;0.98
0.05;-0.03;0.97
0.03;-0.02;1.00
0.00;-0.01;0.99
0.07;-0.01;1.01
0.01;-0.01;1.00
-0.01;-0.00;1.01
0.11;-0.03;0.94
-0.06;0.01;1.12
0.01;-0.00;0.96
-0.03;-0.02;0.96
0.01;-0.06;0.88
-0.11;0.01;0.89
-0.08;-0.05;0.96
-0.00;-0.07;0.97
0.01;-0.03;0.98
0.01;-0.02;1.00
0.01;-0.02;0.98
0.01;0.00;0.97
0.02;-0.01;0.97
-0.00;0.01;1.06
-0.01;-0.01;1.00
-0.02;-0.02;1.04
-0.01;-0.02;1.07
0.03;-0.03;1.00
-0.00;-0.02;0.94
-0.05;0.06;0.83
-0.10;0.01;0.80
-0.10;-0.10;2.08
-0.06;-0.01;1.24
0.05;-0.04;0.97
-0.00;-0.01;0.99
0.03;0.01;0.98
0.04;0.01;0.98
0.00;-0.01;0.98
0.00;-0.02;0.98
0.05;0.02;1.12
-0.02;0.01;0.99
-0.06;-0.00;1.08
-0.05;-0.00;1.18
-0.01;-0.01;0.91
-0.02;0.03;0.87
-0.13;0.01;0.79
-0.05;-0.20;1.01
0.10;-0.03;1.25
0.01;-0.03;0.96
0.02;0.01;0.98
0.02;0.05;0.97
0.03;-0.01;0.99
-0.01;0.02;1.02
-0.03;0.02;1.00
0.08;-0.09;0.92
-0.04;-0.06;1.07
0.01;-0.03;1.02
0.01;-0.02;0.96
-0.04;-0.00;0.83
-0.10;0.02;0.86
-0.05;-0.02;0.91
0.07;-0.06;1.16
0.06;-0.07;1.00
-0.03;-0.03;1.00
0.02;-0.05;0.98
-0.01;-0.03;0.96
0.04;-0.02;0.98
0.02;0.00;1.03
0.00;0.10;0.99
-0.05;-0.06;1.00
-0.04;-0.05;1.10
0.01;-0.03;1.04
-0.03;0.01;0.89
-0.02;-0.00;0.83
-0.10;0.01;0.84
-0.07;-0.01;0.94
0.04;-0.18;0.97
0.08;-0.02;1.08
0.05;0.00;0.97
0.03;0.11;0.90
0.06;0.03;0.99
0.00;0.07;0.99
-0.03;-0.06;1.02
-0.06;-0.05;1.13
0.01;-0.04;1.03
-0.04;-0.01;0.96
-0.03;0.00;0.86
-0.13;0.03;0.84
-0.07;-0.00;0.91
-0.19;0.02;1.62
0.05;-0.06;1.14
0.08;0.04;1.01
-0.02;0.01;1.01
0.01;-0.02;1.02
-0.01;-0.04;1.03
-0.00;-0.02;1.00
-0.02;-0.02;1.05
-0.00;-0.02;1.01
-0.04;-0.00;0.98
-0.02;0.02;0.93
-0.03;0.02;0.97
-0.08;0.01;0.93
-0.00;0.06;0.96
0.08;-0.10;1.03
-0.02;-0.05;0.98
-0.01;-0.02;1.00
0.00;-0.02;0.98
0.02;-0.03;0.97
0.02;0.10;1.02
-0.02;-0.04;1.03
-0.04;-0.03;1.05
-0.02;-0.02;0.96
-0.05;-0.01;0.99
-0.09;-0.02;1.04
-0.06;-0.07;0.92
-0.01;0.03;1.04
-0.01;0.01;1.04
-0.00;-0.03;0.99
0.02;-0.03;0.97
0.01;-0.02;0.96
0.06;-0.03;0.97
0.01;-0.01;0.98
0.03;0.06;1.04
-0.02;-0.03;0.94
-0.01;-0.02;1.09
-0.03;-0.00;0.99
-0.03;-0.01;0.89
-0.07;-0.02;0.90
-0.18;-0.15;1.29
-0.19;0.02;1.17
0.02;0.02;1.00
0.00;0.03;0.94
0.04;0.03;0.98
0.01;-0.01;0.96
0.05;-0.03;0.97
0.02;-0.02;0.97
0.00;0.00;0.98
-0.04;-0.01;1.09
-0.11;-0.06;0.92
-0.01;-0.01;0.99
-0.02;-0.01;1.00
-0.06;0.01;1.01
-0.07;0.01;1.01
-0.04;-0.03;1.04
-0.05;-0.03;1.01
0.02;-0.04;0.96
0.03;-0.02;0.95
0.02;-0.04;0.95
0.04;-0.04;0.97
-0.00;-0.01;0.98
0.04;0.09;1.26
-0.12;-0.02;1.12
0.05;-0.03;1.07
0.00;-0.02;1.03
-0.07;-0.00;0.83
-0.01;-0.01;0.79
-0.15;0.01;0.85
-0.15;-0.21;2.11
0.11;-0.02;1.14
0.00;-0.07;0.89
0.06;-0.04;0.96
0.08;0.01;0.97
0.06;-0.02;0.97
0.05;-0.04;0.95
0.08;0.01;1.10
-0.06;-0.01;1.09
0.00;-0.03;1.06
-0.05;-0.02;0.99
-0.04;-0.02;0.93
-0.06;0.02;0.86
-0.15;0.02;0.83
-0.09;-0.01;0.94
0.10;-0.01;1.21
-0.00;0.03;0.96
0.04;0.03;0.97
0.05;-0.03;0.98
0.07;-0.02;0.99
-0.01;0.10;0.98
-0.01;-0.07;1.03
-0.01;-0.05;1.10
0.03;-0.03;1.06
-0.00;-0.01;1.02
-0.04;0.00;0.79
0.01;-0.02;0.75
-0.14;0.00;0.92
-0.20;-0.19;2.13
0.09;-0.10;1.00
0.05;-0.04;0.92
0.07;-0.03;1.13
0.05;0.05;0.98
0.07;-0.03;0.97
0.02;0.08;1.03
0.02;0.09;1.03
-0.05;-0.06;1.05
-0.02;-0.04;1.06
-0.04;-0.02;0.97
-0.05;-0.02;0.95
-0.01;0.01;0.97
-0.05;0.00;0.94
-0.14;-0.18;1.35
0.04;-0.19;0.85
0.03;0.09;0.94
-0.03;0.04;1.02
0.01;0.02;1.00
-0.01;0.01;0.97
0.00;-0.06;0.95
0.08;-0.03;0.95
0.05;-0.00;0.97
-0.07;0.15;1.07
0.07;-0.00;0.93
-0.02;-0.04;1.12
0.05;-0.03;1.01
-0.00;-0.02;1.07
-0.03;-0.01;0.95
-0.00;-0.07;0.79
-0.08;-0.00;0.81
-0.11;-0.01;0.95
-0.26;-0.02;1.28
0.09;-0.08;0.97
-0.00;0.00;0.95
0.05;-0.02;0.98
0.00;-0.01;0.99
0.02;-0.03;0.98
0.02;-0.02;0.97
-0.03;0.03;1.18
0.06;-0.08;0.97
-0.08;-0.02;1.06
0.01;-0.03;0.99
-0.01;-0.03;0.96
-0.01;-0.02;0.91
0.03;-0.00;0.94
-0.07;-0.01;0.92
0.07;-0.06;1.13
-0.00;0.01;1.01
0.01;-0.01;1.00
-0.04;-0.02;0.99
0.00;-0.04;0.97
0.01;-0.02;0.97
0.02;-0.04;0.96
-0.00;-0.03;0.96
0.04;-0.01;0.98
-0.02;-0.00;1.34
0.03;-0.06;0.96
-0.06;-0.01;1.01
-0.01;-0.02;1.00
-0.02;-0.04;1.00
-0.01;-0.02;0.98
-0.00;-0.01;0.98
-0.08;-0.01;0.91
-0.01;-0.08;1.05
-0.08;0.07;1.07
0.03;-0.01;1.04
-0.04;0.01;0.97
-0.02;-0.01;0.98
0.01;-0.02;0.97
0.01;-0.00;0.98
0.03;-0.06;0.97
-0.02;-0.02;0.96
0.00;0.01;0.99
-0.04;0.03;1.26
-0.12;0.00;1.04
-0.09;-0.01;1.12
0.03;-0.06;0.85
-0.19;0.01;1.35
-0.12;0.09;1.03
-0.02;0.02;1.11
-0.02;-0.06;0.96
0.03;-0.07;0.95
0.03;0.02;0.97
0.00;0.01;0.98
-0.01;-0.03;0.97
-0.01;-0.01;1.00
-0.01;-0.00;0.98
-0.01;0.01;1.03
-0.04;-0.05;1.08
-0.05;-0.01;1.01
-0.02;-0.01;1.00
-0.07;-0.01;1.01
-0.05;-0.02;1.01
-0.01;0.02;1.13
0.01;-0.03;1.01
-0.03;-0.04;1.00
-0.00;-0.02;0.98
0.01;0.00;0.97
-0.01;-0.00;0.96
-0.01;-0.04;0.96
0.01;0.01;1.00
0.01;-0.00;1.00
-0.07;0.03;0.98
-0.02;0.01;0.98
-0.03;-0.00;1.03
-0.03;-0.00;1.10
-0.03;-0.04;0.93
-0.01;-0.01;0.96
-0.09;-0.01;0.93
-0.10;0.03;1.32
-0.02;-0.02;1.05
-0.19;0.11;1.04
-0.04;-0.05;1.04
-0.03;-0.03;0.95
0.02;-0.05;0.93
0.04;-0.02;0.95
-0.01;0.03;0.95
0.02;-0.05;0.98
-0.01;-0.02;0.98
-0.03;-0.00;0.99
-0.06;0.01;1.01
-0.08;-0.00;1.04
-0.10;-0.01;1.06
-0.10;0.00;1.06
-0.14;0.01;1.03
-0.07;-0.04;1.00
-0.03;-0.02;0.96
-0.02;-0.02;0.97
-0.03;-0.02;0.95
-0.04;-0.01;0.98
0.00;-0.04;0.99
0.00;-0.06;1.06
-0.06;-0.04;0.97
-0.07;0.00;0.98
0.02;0.02;1.01
0.03;0.04;1.08
-0.12;-0.04;1.02
-0.15;0.02;1.01
-0.06;0.00;1.03
-0.03;-0.01;0.98
0.00;-0.03;0.96
0.04;-0.03;0.95
0.02;0.00;0.96
0.02;-0.03;0.99
-0.01;-0.03;1.00
-0.04;-0.02;0.98
-0.05;0.00;0.99
0.00;-0.01;0.98
0.02;0.01;0.98
-0.01;-0.01;1.01
-0.12;0.02;1.16
0.03;-0.07;0.80
-0.04;0.02;0.92
-0.16;-0.00;1.51
0.03;-0.01;1.07
-0.04;-0.03;1.02
-0.01;-0.01;1.02
-0.02;-0.00;1.01
0.01;0.01;0.98
0.03;-0.02;0.96
0.01;-0.03;0.95
0.02;-0.03;1.00
-0.04;-0.03;0.97
-0.03;-0.01;0.96
0.06;0.05;1.21
0.00;0.02;0.96
-0.11;0.02;1.18
0.03;-0.01;0.93
-0.02;-0.02;0.95
0.04;-0.03;0.91
-0.08;0.01;0.91
-0.05;-0.03;0.95
-0.17;0.02;1.43
0.09;0.01;1.08
-0.02;-0.03;1.01
0.02;-0.00;1.01
-0.01;0.01;1.01
-0.02;0.00;0.99
-0.01;-0.02;0.95
-0.03;-0.03;0.97
0.00;-0.01;0.98
0.00;-0.04;1.00
-0.04;-0.02;0.98
-0.01;0.01;0.95
-0.02;0.07;0.91
-0.05;-0.01;1.08
-0.00;0.00;0.97
-0.02;-0.00;0.90
-0.06;-0.07;0.88
-0.06;0.02;0.85
-0.12;-0.02;0.85
-0.03;-0.04;1.19
0.07;-0.03;0.97
0.01;-0.02;0.98
0.03;-0.02;0.96
0.04;0.01;0.97
0.04;-0.06;0.94
-0.00;-0.02;0.95
-0.04;0.06;1.18
-0.15;0.03;1.17
-0.04;0.00;1.12
0.02;-0.03;0.99
-0.05;-0.02;0.78
-0.04;-0.01;0.77
-0.13;-0.02;0.95
-0.14;-0.10;2.06
0.02;0.00;0.96
0.11;-0.01;0.96
0.03;0.02;0.99
0.02;-0.01;0.99
0.03;-0.03;0.99
0.02;-0.02;0.97
0.01;0.01;1.00
0.03;-0.00;1.09
-0.07;-0.02;1.19
0.01;-0.02;1.02
0.02;-0.02;1.02
-0.04;0.01;0.79
0.07;-0.01;0.80
-0.09;-0.01;0.79
-0.13;-0.02;0.99
0.13;-0.04;1.22
0.08;-0.03;0.91
0.01;0.01;1.00
0.04;0.01;1.00
0.01;-0.01;1.00
0.03;-0.01;0.98
0.02;-0.01;0.97
-0.06;0.04;0.98
-0.02;0.04;0.98
-0.06;-0.04;1.13
-0.03;-0.02;1.08
-0.04;-0.02;0.96
-0.05;-0.01;0.95
-0.03;0.03;0.93
-0.07;-0.01;0.96
0.01;-0.08;1.15
0.01;-0.04;1.03
-0.00;-0.00;1.00
-0.03;-0.01;1.01
0.03;-0.00;1.03
-0.04;-0.02;1.00
-0.03;-0.02;1.00
-0.04;-0.01;0.99
-0.04;-0.01;0.98
0.00;-0.01;0.99
-0.02;-0.01;1.00
0.01;-0.02;1.01
-0.05;0.01;1.00
0.01;-0.03;1.00
-0.00;-0.02;1.00
-0.03;-0.01;1.02
-0.01;-0.03;1.01
-0.08;0.00;1.02
-0.08;0.01;1.04
-0.05;-0.03;0.99
-0.01;-0.02;0.99
0.00;-0.01;0.97
0.03;-0.00;0.97
0.01;-0.01;1.00
0.00;-0.01;0.97
0.01;-0.01;0.99
-0.01;-0.00;0.99
-0.01;-0.01;1.29
0.03;-0.07;0.96
-0.10;-0.01;1.02
-0.08;0.00;1.00
-0.08;-0.04;1.04
-0.04;0.05;1.19
-0.04;-0.06;1.00
-0.05;-0.05;0.97
0.07;-0.03;0.93
0.05;0.01;0.93
0.02;-0.04;0.97
-0.02;-0.05;0.98
-0.03;-0.04;0.96
-0.04;0.06;0.97
0.02;0.01;0.98
-0.12;0.07;1.09
-0.16;-0.03;1.03
-0.10;-0.02;0.99
-0.10;-0.04;1.02
-0.07;-0.04;1.11
-0.06;-0.04;1.00
-0.02;-0.05;0.96
0.03;-0.04;0.95
0.05;0.01;0.96
0.04;0.03;0.99
-0.01;-0.06;0.98
-0.02;-0.05;0.96
0.04;0.04;1.02
0.07;0.01;0.97
-0.07;0.01;1.03
-0.06;0.00;0.93
-0.03;-0.05;0.82
-0.14;0.03;0.88
-0.15;0.02;1.57
0.00;-0.01;1.03
0.01;-0.03;0.99
0.01;-0.01;0.99
0.01;-0.01;0.98
0.05;-0.00;1.02
0.03;-0.01;0.99
0.04;0.00;1.00
-0.03;-0.03;1.05
0.03;-0.02;1.09
0.04;-0.01;1.01
-0.00;-0.01;1.00
-0.02;-0.01;0.77
-0.02;0.00;0.82
-0.07;-0.00;0.92
-0.16;-0.13;1.13
0.13;0.02;0.89
0.12;0.00;0.92
0.00;-0.01;1.02
0.01;-0.01;1.01
0.07;-0.01;1.00
0.03;-0.03;0.99
-0.02;-0.01;1.12
0.04;-0.02;1.07
-0.01;-0.02;1.04
-0.01;-0.00;0.90
-0.02;-0.01;0.84
-0.09;0.00;0.82
-0.05;-0.02;0.87
-0.07;-0.06;1.04
0.08;-0.08;0.88
0.05;0.02;0.98
0.05;-0.01;1.00
0.00;-0.02;1.00
0.05;-0.02;1.00
0.10;-0.05;0.94
-0.04;-0.01;1.07
0.04;-0.02;1.02
0.02;-0.02;1.06
0.02;-0.01;1.03
-0.01;0.00;0.80
0.03;0.00;0.81
-0.05;-0.02;0.88
-0.03;-0.03;1.01
0.01;-0.04;1.75
0.15;-0.11;1.05
0.04;0.02;1.01
0.03;0.00;1.01
-0.02;-0.00;1.00
-0.01;-0.01;1.00
0.02;-0.00;1.01
0.10;-0.03;0.94
-0.03;-0.01;1.06
0.00;-0.01;1.00
0.01;-0.02;0.97
-0.05;-0.03;0.89
-0.06;-0.00;0.92
-0.13;-0.03;1.27
-0.06;-0.05;1.07
0.00;-0.05;1.00
-0.03;-0.03;1.00
0.00;-0.01;0.99
0.02;0.01;0.98
0.03;-0.02;0.96
0.01;-0.01;0.98
0.01;-0.01;0.98
-0.00;0.04;1.25
-0.01;0.02;1.04
-0.11;-0.05;1.02
-0.09;-0.08;1.00
-0.02;-0.03;1.00
-0.07;-0.01;1.00
-0.03;0.01;1.06
0.01;-0.04;1.05
-0.05;-0.01;1.01
0.02;-0.02;0.96
0.03;-0.01;0.96
0.03;-0.03;0.97
0.05;-0.03;0.98
-0.00;-0.01;1.03
-0.07;0.05;1.04
-0.01;-0.04;0.94
-0.05;-0.04;1.05
-0.03;-0.02;0.96
-0.04;-0.03;0.91
-0.11;0.05;0.90
-0.13;-0.01;1.48
-0.02;-0.02;1.03
0.03;-0.04;0.99
0.00;-0.02;0.99
0.03;0.00;0.96
0.02;0.03;0.97
0.04;-0.03;0.97
0.02;-0.02;0.98
-0.06;0.04;1.03
0.01;0.04;0.99
-0.04;-0.04;1.05
-0.06;-0.04;1.16
-0.00;-0.03;0.99
-0.01;-0.02;0.97
0.05;-0.03;0.86
-0.10;0.00;0.90
-0.06;-0.02;0.93
0.12;-0.03;1.15
0.06;-0.07;0.96
-0.01;-0.02;1.03
0.00;0.00;1.00
0.01;0.02;1.00
0.00;0.01;0.96
0.03;-0.03;0.97
0.02;-0.02;0.97
0.04;0.04;1.05
-0.08;0.07;1.02
-0.12;-0.02;1.13
-0.02;-0.03;1.06
0.04;-0.02;1.03
0.01;-0.01;0.92
-0.00;-0.01;0.82
0.05;-0.03;0.88
-0.02;-0.00;0.82
-0.09;-0.01;0.85
-0.14;-0.01;1.01
0.04;-0.05;1.18
0.10;-0.03;0.91
-0.01;0.01;0.99
0.04;0.01;0.96
0.02;-0.04;0.98
0.07;-0.03;0.93
-0.01;0.01;1.25
-0.11;0.01;1.17
-0.03;0.00;1.16
0.03;-0.01;1.05
-0.01;-0.01;1.02
-0.01;-0.06;0.66
-0.04;-0.02;0.71
-0.13;0.04;0.90
-0.32;0.08;3.00
0.00;-0.07;0.89
0.14;-0.13;0.92
0.04;0.01;0.96
0.06;0.04;1.11
0.07;0.06;1.12
0.11;-0.03;1.07
-0.04;-0.01;1.06
0.02;-0.03;1.06
-0.01;-0.03;1.01
-0.06;-0.02;0.90
0.02;-0.04;0.83
-0.10;0.01;0.92
-0.06;-0.02;0.96
-0.01;0.01;0.99
0.07;-0.02;1.03
0.01;-0.04;0.99
0.04;-0.01;0.96
0.06;-0.02;1.10
0.02;-0.01;1.02
-0.02;-0.02;1.04
-0.01;-0.02;1.12
0.03;-0.03;1.06
-0.02;-0.02;1.02
-0.03;0.01;0.87
-0.04;0.00;0.77
-0.11;0.01;0.85
-0.06;-0.03;1.01
0.02;-0.11;1.04
0.13;-0.02;1.01
0.05;0.08;1.00
0.02;-0.00;1.00
0.04;-0.02;1.01
-0.02;-0.01;1.05
0.04;-0.02;1.05
0.01;-0.02;1.05
-0.05;0.01;0.86
-0.06;-0.02;0.82
-0.13;0.04;0.86
-0.09;-0.00;0.93
0.11;-0.10;1.08
0.03;-0.07;0.91
0.02;-0.01;0.99
0.03;0.02;0.96
0.03;-0.01;1.01
-0.01;-0.00;1.01
0.02;-0.02;1.01
-0.05;-0.02;1.10
-0.01;-0.03;1.07
-0.06;0.01;0.89
-0.03;0.02;0.95
-0.13;-0.05;1.41
0.01;-0.03;1.03
-0.02;-0.07;0.99
-0.01;-0.05;0.99
0.02;0.00;0.98
0.02;0.03;0.98
0.04;-0.02;0.98
0.02;0.05;1.07
-0.05;0.01;1.01
-0.08;-0.07;1.01
-0.01;-0.03;1.01
-0.06;0.01;1.05
0.00;-0.02;1.01
-0.03;-0.03;1.00
0.03;-0.06;0.99
0.00;-0.02;0.98
0.02;-0.01;0.95
-0.01;0.03;1.04
0.01;0.04;1.00
-0.05;-0.03;1.00
-0.04;-0.02;1.01
-0.02;-0.06;1.01
-0.12;0.00;1.05
-0.07;-0.02;0.96
0.06;-0.08;0.93
0.01;-0.05;0.95
0.06;-0.02;0.94
0.04;-0.01;0.94
-0.06;0.09;1.17
0.11;-0.04;0.96
-0.07;-0.00;1.05
-0.02;-0.02;1.01
-0.07;-0.03;0.94
-0.02;-0.01;0.98
-0.14;-0.01;1.25
0.02;-0.02;1.01
0.04;-0.03;1.02
0.01;0.04;0.93
0.00;-0.02;1.05
0.00;-0.00;1.01
0.09;-0.05;1.03
-0.04;-0.03;1.10
-0.00;-0.04;1.03
-0.01;-0.02;1.04
-0.05;0.00;0.85
-0.01;0.01;0.92
-0.03;-0.01;0.95
-0.03;-0.03;1.00
0.07;-0.04;1.03
0.06;0.01;1.01
0.02;-0.02;1.01
0.00;-0.02;1.00
0.00;-0.02;1.00
0.01;-0.03;1.01
-0.01;-0.02;1.03
0.01;-0.02;1.04
-0.04;-0.00;0.96
0.00;-0.01;0.98
-0.19;0.03;1.18
-0.03;-0.00;1.04
-0.03;-0.02;1.06
0.00;-0.02;0.96
0.04;-0.02;0.96
0.01;0.02;0.98
0.04;-0.03;0.96
0.03;-0.02;0.96
0.05;0.04;1.04
0.03;0.01;1.07
-0.12;-0.05;1.05
-0.06;-0.00;0.94
-0.10;-0.01;1.09
-0.03;-0.04;1.01
-0.16;0.01;1.01
-0.01;-0.02;1.10
0.01;-0.03;0.99
0.02;-0.02;0.96
0.04;-0.01;0.98
0.08;0.01;1.05
-0.01;0.02;1.00
-0.01;-0.01;1.01
-0.08;-0.02;1.01
-0.05;-0.03;1.02
-0.13;0.03;1.05
-0.03;0.04;1.03
-0.02;-0.02;0.99
0.02;-0.05;0.99
-0.02;-0.04;0.97
0.05;-0.02;0.98
0.00;-0.00;0.99
-0.03;0.01;1.04
-0.05;-0.01;1.00
-0.03;-0.01;1.00
-0.04;-0.02;1.00
-0.04;-0.02;1.00
-0.10;0.01;1.02
0.04;-0.00;1.05
0.01;-0.03;0.99
0.02;-0.03;1.00
0.04;-0.04;0.99
0.02;-0.01;1.09
-0.03;0.01;1.01
-0.01;-0.02;1.01
-0.06;-0.06;1.01
-0.04;-0.03;1.00
-0.02;-0.01;1.05
0.02;-0.01;0.99
-0.02;-0.02;1.02
0.01;-0.00;0.99
-0.00;-0.03;0.99
-0.02;-0.03;0.99
0.05;-0.01;1.02
-0.00;0.01;1.01
-0.02;-0.02;1.01
-0.02;-0.01;1.01
-0.05;-0.01;1.01
-0.04;-0.02;1.02
-0.05;0.00;1.00
-0.12;-0.04;1.07
-0.08;-0.07;1.12
-0.02;-0.04;0.94
0.02;-0.02;0.93
0.05;-0.01;0.94
0.05;0.00;0.94
0.00;0.01;0.96
-0.02;-0.02;0.98
-0.01;0.01;1.25
-0.04;-0.00;1.02
-0.08;0.01;0.99
-0.06;0.00;1.01
-0.04;-0.02;0.96
-0.06;-0.04;1.01
-0.05;-0.03;1.01
-0.00;-0.08;0.99
0.03;-0.00;0.90
0.04;-0.03;0.98
0.03;-0.01;0.96
0.03;-0.03;0.98
0.06;0.10;1.08
-0.05;0.09;1.05
-0.07;0.01;1.03
-0.05;-0.02;1.02
-0.03;-0.01;1.01
-0.05;-0.01;0.95
-0.04;0.03;1.02
-0.17;-0.01;0.99
-0.01;-0.10;1.02
-0.02;-0.07;0.98
0.04;-0.05;0.95
0.05;-0.05;0.97
0.01;0.08;0.97
0.02;-0.07;1.02
0.04;0.07;1.09
-0.02;0.02;1.01
-0.03;0.01;1.00
-0.07;-0.02;1.01
-0.06;-0.02;1.01
-0.09;-0.09;1.01
-0.02;-0.01;1.09
-0.04;-0.02;1.01
-0.00;-0.02;0.98
0.02;-0.01;0.95
0.01;0.00;0.95
0.03;-0.03;0.98
0.02;0.01;1.01
-0.01;0.05;1.00
-0.05;-0.07;1.03
-0.08;-0.05;1.08
-0.03;0.01;0.91
-0.20;0.07;1.14
-0.00;-0.07;1.22
-0.08;-0.09;1.04
-0.02;-0.08;0.97
0.09;-0.08;0.98
0.02;0.04;0.89
0.07;-0.07;1.01
0.02;-0.04;1.02
0.04;0.05;0.97
0.03;-0.05;0.90
-0.06;-0.06;1.10
-0.04;-0.04;0.86
-0.13;-0.00;0.90
-0.21;0.09;1.26
0.04;-0.04;1.18
-0.02;-0.06;0.94
0.03;-0.04;0.95
0.07;0.01;0.92
0.06;-0.02;0.97
0.05;-0.04;1.00
-0.02;0.03;1.03
-0.05;0.00;1.00
-0.05;-0.01;1.00
-0.06;0.01;1.00
-0.07;0.02;1.05
-0.03;-0.05;1.01
-0.05;-0.04;1.00
0.02;-0.05;0.97
0.04;-0.03;0.97
0.05;-0.04;0.97
0.05;-0.02;0.99
0.00;0.05;1.01
-0.04;0.09;0.98
-0.01;0.03;1.01
-0.07;-0.04;1.00
-0.05;0.05;1.04
-0.06;-0.03;1.01
-0.04;-0.03;0.99
0.03;-0.03;0.95
0.03;-0.03;0.95
0.07;-0.05;0.96
0.02;-0.04;1.03
-0.05;-0.02;1.03
-0.07;-0.03;1.05
-0.09;0.00;1.06
-0.03;0.00;1.02
-0.05;-0.02;1.00
-0.03;-0.02;1.03
-0.05;-0.01;1.03
-0.01;-0.02;0.98
0.02;-0.05;0.96
0.03;-0.06;0.95
0.04;-0.06;0.97
-0.00;-0.02;1.00
-0.06;0.12;1.01
-0.07;-0.01;0.99
-0.07;-0.05;1.03
-0.02;-0.00;0.97
-0.10;-0.00;1.05
-0.00;-0.21;1.07
-0.02;-0.06;1.05
0.01;-0.03;0.97
0.01;-0.02;0.98
0.01;-0.02;0.97
-0.01;0.02;0.99
-0.05;0.05;1.00
0.08;-0.03;1.05
-0.02;-0.06;1.01
0.02;-0.04;1.01
-0.00;-0.01;0.93
-0.00;0.01;0.94
-0.15;-0.03;1.29
0.07;-0.03;1.01
0.01;-0.08;1.06
-0.01;-0.02;1.00
-0.02;-0.02;0.99
0.00;-0.01;0.97
0.01;-0.02;0.97
-0.01;-0.00;0.97
-0.04;0.05;1.08
0.02;0.05;0.98
-0.05;-0.05;1.14
0.03;-0.05;1.12
-0.01;-0.03;1.00
-0.02;0.02;0.90
0.04;0.00;0.90
-0.06;-0.00;0.88
-0.03;-0.04;0.96
-0.16;0.10;1.40
-0.02;0.07;1.14
0.03;-0.06;0.98
-0.01;-0.03;0.97
-0.02;-0.01;0.98
0.05;-0.00;1.05
0.00;0.02;0.99
0.06;-0.03;1.05
-0.07;-0.04;1.15
0.04;-0.05;1.05
0.00;-0.02;1.07
0.03;-0.02;0.97
-0.00;-0.00;0.93
0.10;-0.00;0.80
-0.06;-0.00;0.83
-0.01;-0.06;0.95
-0.06;-0.04;1.11
0.22;-0.06;0.98
0.06;0.02;1.00
0.03;0.01;1.00
0.04;-0.01;1.00
0.06;-0.04;0.99
-0.00;-0.05;1.07
-0.01;-0.05;1.11
-0.01;-0.03;1.05
-0.02;-0.01;1.01
-0.03;0.01;0.88
0.06;-0.01;0.92
-0.02;-0.01;0.96
-0.01;-0.03;0.94
-0.02;0.07;1.06
0.14;-0.08;1.11
-0.01;0.00;0.95
-0.02;-0.02;1.00
0.03;-0.04;0.99
-0.00;0.02;1.05
-0.03;-0.23;1.04
-0.01;-0.01;1.14
0.05;-0.02;1.08
0.03;-0.01;1.13
0.00;0.01;1.03
-0.03;0.01;0.70
0.01;-0.02;0.64
-0.14;0.05;0.78
-0.39;-0.53;2.83
0.10;-0.10;0.94
0.11;-0.07;0.88
0.01;0.06;0.99
0.00;-0.06;1.01
0.03;-0.02;0.97
0.03;-0.02;0.97
0.01;-0.01;0.98
0.13;0.05;1.13
-0.12;-0.03;1.14
0.05;-0.02;1.05
-0.03;-0.03;0.97
-0.04;-0.02;0.79
-0.02;-0.06;0.77
-0.10;-0.01;0.90
-0.08;-0.01;0.97
-0.14;-0.10;1.42
0.07;-0.12;1.15
0.06;0.04;1.05
0.03;0.03;1.01
0.03;0.01;0.97
0.10;-0.02;1.04
0.04;0.05;1.00
-0.07;-0.01;1.06
-0.04;-0.05;1.22
0.05;-0.04;1.09
0.02;-0.05;1.13
0.06;-0.04;1.04
0.10;-0.02;0.95
0.06;-0.00;0.72
0.03;0.04;0.73
0.01;-0.03;0.59
-0.09;0.02;0.79
-0.30;-0.01;1.27
0.42;0.02;0.87
0.10;-0.15;1.15
0.05;0.06;0.98
0.05;-0.09;1.02
0.10;0.00;1.00
0.02;0.04;1.00
0.05;-0.07;0.98
-0.08;-0.04;1.25
0.04;-0.03;0.95
-0.05;-0.03;1.03
-0.02;0.01;0.74
0.00;0.01;0.78
-0.08;0.01;0.85
0.04;0.02;1.74
0.16;-0.14;1.11
0.07;-0.07;0.92
0.01;-0.11;1.07
0.02;0.01;1.01
0.03;0.01;1.00
0.10;-0.09;0.99
-0.05;-0.07;1.07
0.04;-0.05;1.03
0.02;-0.04;1.06
-0.01;-0.00;0.93
-0.05;0.01;0.83
-0.06;0.03;0.85
-0.13;-0.00;0.90
-0.40;0.18;1.82
0.05;-0.13;0.91
0.07;0.02;0.78
0.02;-0.08;1.00
0.02;0.00;1.00
0.05;-0.04;0.94
0.01;0.04;0.98
0.02;0.04;1.00
0.05;-0.08;1.08
-0.02;-0.06;1.23
0.06;-0.05;1.04
-0.03;-0.02;1.03
-0.01;0.01;0.77
0.03;0.02;0.82
-0.06;-0.02;0.93
-0.04;-0.03;1.08
0.03;-0.03;1.14
-0.06;-0.03;1.01
0.06;-0.06;1.11
0.06;0.04;0.87
0.05;0.03;1.00
0.01;-0.01;0.96
0.01;-0.02;0.99
-0.02;-0.01;0.99
-0.07;0.04;1.01
0.10;-0.10;1.06
-0.07;-0.08;1.15
0.08;-0.05;1.04
0.05;-0.02;1.03
0.00;0.01;0.96
0.01;0.00;0.82
0.07;-0.01;0.79
-0.08;0.01;0.79
-0.06;-0.03;0.98
-0.11;-0.04;1.09
0.16;-0.05;1.19
0.07;-0.08;0.98
0.06;-0.02;1.01
0.00;-0.00;0.98
0.04;-0.03;0.97
0.08;0.05;1.23
-0.01;0.11;1.03
-0.10;-0.04;1.20
0.02;-0.05;1.14
-0.01;-0.03;1.07
-0.01;-0.01;1.03
0.04;-0.00;0.83
0.05;0.01;0.83
-0.04;-0.01;0.85
-0.02;-0.03;0.90
-0.02;-0.05;1.00
-0.03;-0.05;1.07
-0.07;0.14;1.46
0.07;0.03;1.02
0.01;-0.21;1.04
0.00;-0.02;1.01
-0.01;-0.04;1.00
-0.02;-0.01;1.00
-0.02;-0.01;1.00
0.00;-0.09;0.97
-0.05;-0.01;1.04
0.03;-0.03;1.08
0.05;-0.03;1.06
0.04;-0.02;1.05
0.05;-0.02;0.87
0.04;0.00;0.82
-0.04;-0.00;0.86
-0.07;-0.02;0.88
-0.08;-0.03;1.03
-0.04;-0.07;1.07
0.12;-0.01;1.00
0.07;0.01;0.98
0.02;0.00;1.00
-0.02;-0.01;1.00
0.05;-0.00;1.00
-0.03;0.04;1.01
-0.01;-0.08;1.00
-0.08;-0.06;1.24
0.06;-0.03;1.02
0.03;-0.02;1.11
0.01;-0.01;0.97
0.05;-0.00;0.79
0.07;0.03;0.76
-0.05;-0.01;0.84
-0.04;-0.02;0.91
-0.09;-0.05;1.13
-0.07;0.06;2.06
0.08;0.05;1.03
0.04;0.00;1.02
0.05;-0.01;1.01
-0.00;-0.01;1.00
0.03;-0.04;1.00
0.00;0.00;1.00
-0.05;0.04;1.00
-0.01;0.02;1.00
-0.05;-0.04;1.00
-0.03;-0.04;1.06
0.03;-0.03;1.00
0.01;-0.02;1.06
0.02;-0.02;1.00
0.04;-0.02;1.00
0.03;-0.01;0.94
0.03;-0.00;0.90
0.05;-0.01;0.93
-0.00;-0.04;0.97
-0.01;-0.03;1.02
0.00;-0.04;1.01
0.04;-0.03;1.07
0.03;-0.04;1.02
0.02;-0.09;1.03
0.04;-0.04;0.98
0.02;-0.03;1.02
-0.00;-0.00;1.00
0.02;0.02;1.00
-0.01;-0.06;1.02
0.01;-0.05;1.07
0.04;-0.04;0.98
0.01;-0.03;1.01
0.02;0.02;0.85
0.06;0.02;0.85
-0.07;-0.00;0.87
-0.09;-0.02;0.96
-0.05;-0.01;1.17
0.06;-0.07;1.08
0.04;0.11;0.84
-0.05;-0.04;1.03
0.04;-0.01;1.00
-0.02;-0.02;0.96
0.03;-0.03;0.97
0.03;0.02;1.07
0.07;-0.02;1.13
-0.10;-0.08;1.20
0.04;-0.05;1.01
-0.01;-0.01;0.98
-0.01;0.01;0.87
-0.09;-0.01;0.84
-0.11;-0.02;0.91
-0.12;0.01;1.08
0.07;-0.11;1.29
0.00;0.40;1.16
0.02;-0.04;0.89
0.02;-0.05;0.95
0.04;-0.02;0.93
0.03;-0.08;0.95
0.02;-0.01;0.94
0.01;0.12;0.82
0.13;-0.13;1.26
-0.20;-0.07;1.12
0.01;-0.05;0.95
-0.02;-0.02;0.97
-0.02;0.02;0.88
-0.08;0.00;0.90
0.09;-0.03;1.02
0.02;0.02;1.05
0.04;-0.00;1.01
0.04;0.03;1.01
0.01;-0.00;1.01
0.07;0.06;0.96
-0.14;0.05;1.35
-0.12;-0.10;1.07
-0.10;-0.08;1.11
-0.01;-0.01;0.98
-0.04;0.00;1.01
-0.06;0.02;0.94
-0.11;-0.01;0.89
-0.09;0.01;1.17
0.03;-0.07;1.22
-0.05;-0.10;1.02
0.02;0.03;1.01
0.03;-0.05;0.96
0.02;-0.03;0.98
0.02;0.01;0.94
0.02;-0.07;1.07
0.09;0.07;1.40
-0.01;-0.08;0.95
-0.11;-0.04;1.09
-0.02;-0.02;0.86
-0.06;-0.02;0.95
-0.08;0.00;1.05
0.01;-0.08;1.22
-0.07;-0.10;0.94
-0.00;-0.14;0.88
0.04;-0.02;0.97
0.04;-0.01;0.98
0.04;-0.01;0.99
0.08;0.04;1.22
-0.03;0.02;1.05
-0.12;-0.04;1.10
-0.06;-0.04;1.06
-0.05;0.07;0.93
-0.07;0.00;0.92
-0.03;-0.06;0.99
-0.12;0.00;0.99
0.09;0.13;0.91
0.04;0.02;0.96
0.04;-0.05;1.01
0.08;-0.08;0.94
-0.04;-0.03;1.13
0.00;-0.02;0.92
-0.03;-0.03;0.99
-0.09;0.07;1.04
-0.04;0.07;1.00
-0.06;-0.15;1.00
0.06;-0.07;0.96
0.07;-0.16;0.97
-0.01;-0.02;0.99
0.02;0.01;1.00
-0.02;-0.06;1.10
0.01;-0.06;1.12
0.03;-0.03;1.03
0.02;-0.02;1.02
-0.05;0.03;0.86
0.00;0.04;0.88
-0.08;-0.01;0.97
0.07;-0.04;0.76
0.06;-0.07;1.09
0.06;-0.09;1.01
-0.00;-0.04;1.01
0.01;-0.05;1.07
0.05;-0.05;1.05
-0.02;-0.03;0.97
-0.04;0.00;0.88
-0.05;0.03;0.94
-0.06;-0.00;0.93
0.07;-0.04;1.05
0.02;0.01;1.01
0.02;0.14;0.55
0.17;-0.14;1.67
-0.01;-0.03;1.01
0.06;-0.03;1.00
-0.05;-0.05;1.07
-0.02;-0.04;1.08
-0.00;-0.05;0.97
-0.06;0.02;0.90
-0.05;0.02;0.97
-0.08;-0.12;1.01
0.04;-0.10;0.89
0.02;-0.05;1.01
0.01;-0.06;1.01
0.01;-0.05;1.01
-0.04;-0.03;1.14
0.04;-0.03;0.99
-0.02;-0.01;0.98
-0.05;-0.00;0.85
-0.15;0.00;0.84
0.02;-0.01;1.12
0.02;-0.07;1.00
0.03;-0.03;0.97
0.03;-0.01;0.93
0.09;-0.04;0.91
0.08;0.09;1.32
0.01;0.07;1.03
-0.16;-0.03;1.13
-0.07;-0.03;1.00
-0.05;-0.03;1.01
-0.08;-0.02;0.98
-0.14;0.13;1.35
0.04;0.01;1.00
0.03;-0.07;1.00
0.06;-0.05;0.98
0.05;-0.01;1.07
0.00;0.05;1.00
0.05;-0.17;0.98
-0.06;-0.01;1.07
-0.01;-0.02;1.03
-0.03;-0.00;0.96
-0.05;0.00;0.92
-0.14;0.16;1.18
-0.05;0.05;1.11
-0.02;0.01;1.00
-0.01;-0.01;0.97
0.02;-0.02;0.99
0.01;-0.01;0.98
0.06;-0.03;0.99
0.00;-0.02;1.01
-0.00;-0.02;1.05
-0.04;0.00;1.00
-0.05;-0.01;1.02
-0.05;-0.01;1.01
-0.06;-0.02;1.01
-0.01;0.01;1.08
-0.03;-0.02;1.02
-0.00;-0.03;1.00
-0.02;-0.02;0.96
0.02;-0.06;0.95
0.06;-0.08;0.99
0.02;-0.03;0.98
-0.14;-0.18;1.05
-0.06;-0.02;0.97
-0.04;-0.04;1.06
-0.05;0.01;1.02
-0.20;0.07;1.11
-0.02;0.05;0.96
-0.04;-0.02;0.99
-0.00;-0.01;0.95
0.06;-0.02;0.94
0.05;0.01;0.95
0.05;-0.04;0.98
0.01;-0.01;0.99
-0.01;0.09;1.22
-0.04;-0.00;0.95
-0.03;-0.09;0.99
0.00;-0.02;1.06
-0.01;-0.01;1.01
0.02;-0.00;1.00
-0.00;0.00;0.94
-0.05;0.00;0.84
-0.14;0.05;0.84
-0.21;-0.28;1.95
0.01;0.04;1.13
-0.01;0.01;1.02
0.02;0.01;1.04
0.06;-0.05;0.95
0.11;-0.05;0.95
0.06;-0.02;0.94
0.08;0.14;1.37
0.02;-0.17;1.11
-0.03;0.02;1.11
0.03;-0.01;1.06
-0.06;-0.02;0.95
-0.08;-0.01;0.79
-0.16;0.00;0.79
-0.13;0.00;0.93
0.14;-0.07;1.25
0.08;-0.03;1.01
0.07;-0.00;1.01
-0.00;0.00;1.01
0.01;-0.02;1.00
0.03;-0.03;1.00
-0.01;-0.03;1.00
-0.06;0.03;1.00
-0.04;0.00;1.00
-0.04;-0.00;1.00
-0.05;-0.02;1.00
-0.05;-0.10;0.98
-0.11;0.04;1.20
-0.04;0.03;1.00
-0.02;-0.00;0.97
0.04;-0.04;0.95
0.03;-0.03;0.98
0.05;-0.04;0.99
-0.00;-0.02;0.99
0.00;-0.02;1.00
-0.01;-0.06;1.04
-0.08;-0.00;1.01
-0.03;-0.02;1.04
-0.03;-0.01;0.97
-0.09;-0.00;1.05
-0.06;-0.06;1.02
-0.00;-0.01;1.07
-0.02;-0.02;1.01
0.00;-0.01;1.00
0.02;-0.03;0.95
-0.03;-0.03;0.99
0.02;-0.02;0.99
-0.02;-0.01;0.98
0.03;-0.06;0.97
-0.05;0.01;1.01
0.03;-0.01;1.11
0.04;-0.02;1.07
-0.01;-0.01;1.00
-0.02;0.00;0.93
-0.02;-0.00;0.73
-0.13;0.01;0.78
-0.10;-0.08;2.26
0.14;-0.11;1.12
0.04;0.02;0.99
-0.00;-0.01;1.02
0.03;-0.03;1.02
0.02;-0.01;0.99
0.02;-0.03;0.96
0.04;-0.05;0.94
0.03;-0.03;0.94
0.08;-0.11;1.15
-0.18;0.10;1.14
0.05;0.02;0.99
-0.00;0.00;1.05
-0.02;-0.00;0.96
-0.00;-0.01;0.91
0.01;-0.05;0.95
-0.06;-0.00;0.88
-0.08;-0.00;0.87
-0.05;-0.02;1.02
-0.08;0.01;1.76
0.08;-0.02;1.04
-0.04;0.01;1.03
-0.06;0.02;1.05
0.02;-0.07;0.97
0.05;-0.07;0.90
0.07;-0.02;0.93
0.00;-0.03;0.93
0.07;-0.02;0.98
0.07;-0.10;1.07
-0.04;0.05;1.09
0.03;0.02;0.96
-0.01;0.00;1.05
-0.02;-0.00;0.91
0.03;-0.04;0.88
-0.12;0.04;0.89
-0.19;-0.18;1.66
-0.12;0.04;1.33
0.01;-0.03;0.92
0.01;-0.03;0.94
0.04;0.00;0.95
0.06;-0.03;0.99
0.04;-0.04;0.98
0.02;0.04;1.00
-0.12;-0.01;1.13
0.02;-0.03;1.05
0.01;-0.03;1.11
-0.02;-0.00;0.95
0.01;-0.01;0.81
-0.07;0.00;0.78
-0.09;-0.01;0.81
-0.15;-0.17;1.62
0.10;-0.13;0.77
0.05;0.07;1.03
0.01;0.08;1.02
-0.02;0.03;0.99
0.02;-0.05;0.91
-0.02;-0.04;0.95
0.03;-0.03;0.96
-0.02;-0.03;0.95
0.00;-0.01;0.96
-0.01;0.04;1.47
-0.07;0.04;1.23
0.04;0.02;1.03
0.03;-0.01;1.13
-0.01;-0.00;1.00
0.08;-0.03;0.75
0.05;-0.06;0.66
-0.04;-0.00;0.73
-0.08;-0.00;1.06
-0.14;-0.04;1.23
0.02;-0.04;0.97
0.11;-0.01;1.06
0.13;0.03;1.00
0.04;-0.02;1.05
0.11;-0.02;1.00
0.07;-0.01;0.99
-0.10;-0.01;1.25
-0.01;-0.03;1.13
-0.00;-0.03;1.08
-0.01;-0.02;1.07
0.03;-0.00;0.79
0.05;0.03;0.81
-0.06;-0.01;0.72
-0.12;0.01;0.94
-0.17;-0.01;2.95
0.18;-0.06;1.04
0.09;-0.01;0.87
0.06;0.02;0.99
0.05;0.03;1.00
0.05;-0.04;0.98
0.02;0.05;1.04
-0.11;-0.12;1.11
-0.04;-0.04;1.13
0.01;-0.02;1.06
-0.01;-0.01;1.06
-0.01;0.01;0.89
0.03;0.01;0.79
-0.09;0.01;0.80
-0.10;-0.02;1.02
-0.14;-0.26;1.38
0.08;-0.03;0.96
-0.00;0.02;0.96
0.05;0.10;0.99
0.04;0.02;0.97
0.04;-0.03;0.96
0.06;-0.03;0.97
0.03;0.06;1.26
-0.00;0.08;1.04
-0.10;-0.05;1.14
0.06;-0.04;1.05
0.04;-0.03;1.05
-0.01;-0.00;0.90
-0.01;0.01;0.71
-0.10;0.01;0.74
-0.11;0.00;0.78
-0.34;0.18;1.89
0.01;-0.10;1.21
0.01;-0.04;0.88
0.06;-0.16;1.12
0.04;-0.01;0.99
0.04;-0.02;0.94
0.07;-0.03;1.01
0.05;0.04;1.03
0.08;-0.05;0.97
0.03;-0.06;1.17
0.04;-0.04;1.02
-0.01;-0.00;0.93
-0.07;-0.00;0.78
-0.09;0.01;0.64
-0.18;0.01;0.73
0.01;-0.04;0.75
0.03;0.03;1.26
0.07;-0.05;0.93
0.07;0.01;0.98
0.00;-0.03;0.99
0.02;-0.03;0.97
0.02;-0.04;0.95
0.13;-0.02;0.95
-0.05;0.08;1.10
0.01;0.05;0.99
0.11;-0.06;1.08
-0.08;-0.02;0.96
-0.08;-0.02;0.72
-0.14;0.02;0.85
-0.15;0.01;0.87
-0.01;-0.04;1.29
-0.06;-0.11;0.98
-0.01;-0.14;0.94
0.02;-0.10;0.91
0.06;-0.02;0.99
-0.01;-0.05;0.98
0.07;-0.06;0.92
0.05;0.00;0.61
0.06;0.08;0.91
0.07;0.01;1.10
-0.07;-0.02;1.13
-0.01;-0.00;0.80
-0.04;0.03;0.78
-0.20;-0.04;1.30
-0.14;0.04;1.07
-0.08;0.05;0.93
-0.05;0.06;1.00
-0.01;-0.14;1.00
0.03;-0.04;0.95
0.06;-0.02;1.05
0.04;-0.04;0.95
0.07;0.05;0.93
0.11;-0.03;1.00
-0.05;0.13;1.23
-0.12;-0.04;1.18
-0.05;-0.04;1.00
-0.11;-0.02;0.82
-0.12;-0.05;0.88
-0.16;-0.17;1.33
-0.20;0.02;1.30
-0.10;0.01;1.01
-0.06;-0.01;1.00
-0.01;-0.01;0.96
0.05;-0.03;0.87
0.08;-0.00;0.99
0.06;-0.02;0.96
0.05;-0.01;0.96
0.05;-0.01;0.96
-0.00;0.09;1.35
-0.12;-0.03;1.06
-0.04;-0.03;1.21
-0.00;-0.02;0.94
-0.05;-0.02;0.92
-0.00;-0.04;0.74
-0.14;-0.00;0.93
-0.22;-0.16;2.09
-0.01;0.02;0.97
0.01;-0.03;0.94
0.03;-0.04;0.95
0.04;-0.03;0.95
0.04;0.01;0.99
0.07;-0.04;0.95
0.06;-0.03;0.92
0.05;-0.01;0.96
0.03;-0.01;1.03
-0.12;-0.02;1.20
-0.03;-0.01;0.83
-0.12;-0.02;0.84
-0.15;0.00;0.77
-0.06;0.01;1.31
-0.06;0.11;0.90
-0.03;-0.04;0.96
0.09;0.33;1.08
0.06;0.01;0.84
0.05;0.01;0.99
0.05;-0.03;0.98
0.06;0.05;0.95
0.04;0.05;1.33
0.06;0.05;1.04
-0.10;-0.05;1.14
-0.00;-0.03;0.88
-0.04;-0.02;0.97
-0.17;-0.02;1.01
-0.02;-0.00;0.97
-0.08;-0.05;1.03
-0.08;-0.06;0.96
-0.01;-0.09;0.93
0.12;0.41;0.96
0.01;-0.04;0.96
0.01;-0.03;0.97
0.01;0.04;0.92
0.01;-0.08;1.10
-0.02;-0.01;1.01
-0.03;-0.00;1.03
-0.08;0.00;1.02
-0.05;-0.04;1.06
-0.07;-0.03;1.03
-0.05;-0.04;0.99
-0.00;0.00;0.91
0.03;-0.05;1.00
0.05;-0.02;0.95
0.04;0.04;0.85
0.01;0.07;1.05
-0.00;-0.06;1.05
-0.07;-0.11;0.98
-0.09;-0.00;1.00
-0.07;-0.01;1.01
-0.05;0.00;1.02
-0.00;-0.02;1.02
-0.00;-0.03;0.98
0.03;-0.04;1.00
0.01;-0.01;0.94
0.02;0.00;1.03
0.02;-0.01;1.01
0.08;-0.09;1.03
-0.09;-0.00;1.00
-0.04;-0.00;0.97
-0.05;-0.03;1.03
-0.02;-0.02;1.00
-0.01;-0.01;1.00
-0.09;-0.01;1.00
-0.07;-0.06;1.02
-0.16;0.13;1.04
0.04;0.17;0.94
-0.06;-0.11;0.98
0.02;-0.07;0.97
0.09;-0.09;0.96
0.06;-0.11;0.95
0.06;-0.11;0.94
0.07;-0.01;1.00
0.07;-0.01;0.95
0.01;0.02;1.07
-0.10;0.04;1.04
-0.12;0.03;1.01
-0.11;-0.03;1.03
-0.09;-0.01;1.02
0.29;-0.08;0.98
-0.03;-0.00;0.96
-0.02;-0.01;1.00
-0.03;-0.01;1.00
0.04;0.00;1.05
-0.04;0.02;1.01
0.07;-0.06;1.00
0.09;-0.06;1.05
0.07;-0.11;0.96
-0.13;-0.02;1.05
-0.05;0.01;0.98
0.03;0.05;1.01
0.00;-0.01;1.02
-0.05;-0.02;1.01
-0.06;-0.03;1.01
0.06;0.03;1.03
0.08;-0.00;0.93
-0.01;-0.00;1.02
0.04;-0.04;1.01
0.04;-0.02;1.03
0.04;-0.03;1.01
-0.10;-0.01;1.03
-0.06;-0.00;1.05
-0.01;0.02;0.96
-0.05;-0.02;1.07
-0.02;-0.02;1.02
-0.03;-0.02;1.01
-0.02;0.01;1.00
0.07;-0.00;0.99
0.07;-0.01;0.99
0.07;-0.02;1.00
0.06;-0.04;1.01
0.01;-0.01;1.01
0.02;0.00;1.00
-0.05;-0.05;1.03
-0.09;-0.02;1.02
-0.01;-0.04;1.00
-0.04;-0.01;1.01
0.01;-0.00;1.00
-0.01;-0.01;1.00
0.04;-0.01;1.00
0.07;-0.06;1.03
-0.02;-0.01;1.00
-0.01;-0.02;1.00
-0.00;-0.03;1.00
-0.00;-0.01;1.00
-0.00;-0.01;1.00
0.00;-0.04;1.06
0.03;-0.04;1.05
0.01;0.01;0.97
-0.03;0.03;0.89
-0.10;0.02;0.89
-0.12;-0.03;1.31
0.03;-0.05;1.07
0.00;-0.01;1.00
0.04;-0.02;1.00
0.03;-0.01;0.99
-0.01;-0.01;1.00
0.09;-0.02;1.00
0.04;-0.01;1.00
-0.01;-0.01;0.98
-0.08;-0.00;1.13
0.01;-0.04;0.88
0.01;-0.02;0.98
-0.07;0.01;1.09
-0.01;-0.03;1.00
-0.04;0.01;1.00
0.01;-0.01;1.00
0.01;0.00;0.99
0.01;-0.01;1.00
0.03;-0.00;1.00
0.02;0.01;1.00
0.03;-0.01;1.04
0.03;0.01;1.01
0.06;-0.01;0.93
-0.01;-0.00;1.05
-0.01;-0.00;0.86
0.03;-0.04;0.88
-0.08;0.03;0.98
0.03;-0.07;0.98
0.00;-0.00;1.00
-0.02;-0.01;1.00
0.00;-0.01;1.00
0.03;-0.01;1.00
0.03;-0.02;0.99
0.08;-0.02;0.99
0.02;0.00;1.00
0.03;-0.01;1.01
-0.10;-0.00;1.02
-0.02;-0.02;0.97
0.03;-0.02;1.00
-0.02;-0.00;1.00
-0.02;-0.04;1.01
-0.01;0.00;1.01
-0.01;-0.01;1.02
-0.03;0.00;1.00
0.06;-0.02;1.02
0.01;0.01;1.01
0.00;0.00;1.00
-0.03;-0.03;0.99
0.00;-0.03;1.00
0.01;0.01;1.00
-0.04;0.02;1.00
-0.02;-0.02;1.00
-0.00;-0.05;1.00
-0.05;-0.02;1.01
0.01;-0.02;1.00
0.03;-0.01;1.00
0.04;-0.02;1.00
0.00;-0.01;1.00
0.04;-0.05;0.98
0.01;-0.03;0.99
0.03;-0.05;1.05
0.10;-0.03;1.05
-0.03;0.00;0.91
0.04;0.00;0.87
-0.13;-0.02;1.40
0.13;-0.08;1.05
0.01;-0.02;1.00
0.03;-0.01;1.00
0.06;-0.02;1.06
-0.02;-0.01;1.08
0.01;-0.02;1.02
-0.00;0.01;0.97
-0.04;0.02;0.93
-0.01;-0.01;1.01
-0.01;-0.01;1.04
-0.01;-0.00;0.96
-0.05;0.03;1.16
0.06;-0.04;1.03
0.06;-0.05;1.01
0.02;-0.02;1.00
0.08;0.03;1.01
0.01;0.00;0.99
0.01;-0.05;1.00
-0.00;-0.04;1.00
-0.01;-0.01;1.00
-0.00;-0.01;1.00
-0.01;-0.01;1.00
-0.01;-0.02;1.00
0.02;-0.02;1.00
0.00;-0.01;1.00
0.04;-0.00;1.00
0.04;-0.01;1.00
0.03;0.00;1.00
0.04;0.00;1.02
0.02;-0.01;1.05
-0.04;0.03;1.08
-0.07;0.02;0.94
-0.23;0.06;0.78
-0.25;0.08;0.80
-0.08;-0.01;0.98
0.02;-0.03;0.97
0.15;-0.10;1.00
0.08;-0.06;0.99
0.07;-0.08;1.20
-0.03;-0.04;1.17
0.02;0.00;0.85
-0.05;0.04;0.84
-0.20;0.08;0.75
-0.23;-0.05;2.02
0.07;-0.04;1.00
0.33;-0.07;1.01
0.34;-0.09;1.21
0.29;-0.19;1.19
0.16;-0.17;0.93
-0.09;-0.03;0.90
-0.15;0.05;0.83
-0.18;0.24;0.91
-0.26;0.30;0.98
-0.44;0.34;1.34
-0.23;0.06;1.04
0.88;-0.49;0.97
1.01;-0.65;1.39
0.33;-0.59;1.53
-0.44;-0.19;0.78
-0.32;0.22;0.56
-0.17;0.58;0.28
-0.12;0.66;0.67
-0.98;0.48;1.82
-1.20;0.56;1.25
1.14;-0.22;1.31
2.06;-0.66;0.82
0.71;-0.46;1.10
0.96;-0.78;1.71
-0.73;0.26;1.04
-0.87;1.02;0.22
-0.80;0.79;0.94
-1.05;0.44;1.81
-0.71;0.49;1.20
1.28;-0.09;0.92
1.36;-0.34;0.71
1.42;-0.90;1.51
0.86;-0.38;1.56
-0.70;0.29;1.00
-0.50;0.53;0.50
-0.62;0.69;0.62
-0.55;0.55;1.21
0.23;0.04;1.17
0.99;-0.42;0.94
0.50;-0.35;1.21
0.10;-0.15;1.10
-0.08;-0.05;1.01
-0.20;0.11;0.79
-0.12;0.06;0.84
0.20;-0.05;0.91
-0.09;0.02;0.93
-0.17;-0.05;1.49
0.01;-0.04;0.99
0.11;-0.14;1.01
0.05;-0.16;1.01
-0.10;-0.07;1.15
-0.01;-0.04;0.88
0.04;-0.04;0.96
0.17;-0.13;1.02
0.14;-0.12;1.04
0.10;-0.06;1.03
-0.02;-0.05;1.06
0.01;0.04;0.93
-0.05;0.03;1.01
-0.10;0.06;0.82
-0.06;0.17;0.91
-0.08;0.33;0.64
-0.04;0.21;1.41
0.02;-0.15;1.03
0.02;-0.69;0.96
0.13;-0.05;1.04
-0.04;-0.02;1.13
-0.09;-0.01;1.14
-0.03;0.04;0.77
-0.11;0.08;0.92
-0.12;0.01;0.91
0.01;-0.00;1.05
-0.07;-0.01;1.05
-0.08;-0.02;1.00
0.00;-0.05;0.96
0.04;-0.09;0.94
0.07;-0.08;0.93
0.10;-0.07;0.96
0.01;-0.03;0.96
-0.09;0.08;1.02
-0.13;0.02;1.07
-0.08;-0.01;1.03
-0.07;-0.04;0.99
-0.08;0.11;1.04
-0.04;-0.09;1.11
0.02;-0.00;0.98
0.07;-0.03;0.96
0.06;-0.07;0.93
0.08;-0.07;0.93
0.01;-0.04;1.29
-0.07;-0.09;1.05
-0.04;-0.00;1.01
-0.06;-0.01;1.00
-0.06;-0.02;1.00
-0.06;0.01;1.00
-0.08;-0.01;1.00
-0.04;-0.00;1.00
0.01;0.00;1.01
0.03;-0.03;1.01
0.05;-0.01;1.00
0.03;-0.03;0.98
0.09;-0.04;1.00
0.01;-0.00;0.98
-0.01;-0.03;1.02
-0.09;-0.03;1.02
-0.10;-0.02;1.03
-0.07;-0.01;1.01
-0.06;0.01;0.98
-0.04;-0.02;0.97
-0.02;-0.02;0.97
-0.00;-0.01;1.00
-0.02;-0.01;1.04
-0.04;-0.00;1.00
0.01;0.02;1.03
0.00;-0.01;1.02
-0.00;-0.04;1.00
0.00;-0.03;0.98
-0.01;-0.03;0.98
0.00;-0.02;0.97
0.00;-0.01;0.99
-0.03;-0.02;0.99
-0.01;-0.01;0.98
0.01;0.01;0.98
-0.04;-0.02;1.01
-0.11;-0.04;1.03
-0.07;-0.04;1.07
-0.09;-0.00;1.02
-0.06;0.01;1.01
0.03;-0.04;0.96
-0.00;-0.03;0.98
0.03;-0.03;0.97
-0.03;-0.01;1.02
-0.05;-0.01;1.03
-0.04;-0.01;1.00
-0.03;-0.02;1.00
-0.03;-0.02;1.00
-0.04;-0.01;0.98
-0.02;-0.03;0.98
-0.01;-0.03;0.98
-0.06;-0.04;1.04
-0.08;-0.01;1.06
-0.08;-0.01;1.04
-0.00;-0.02;1.01
-0.03;-0.03;0.99
-0.01;-0.02;0.99
-0.00;-0.02;1.00
-0.04;-0.02;0.99
-0.00;-0.01;1.00
-0.01;-0.02;0.98
-0.03;-0.02;0.99
0.02;-0.03;0.98
0.00;-0.02;0.98
-0.04;-0.01;1.09
-0.07;-0.07;1.00
-0.03;-0.01;1.00
-0.02;-0.00;1.00
-0.07;0.01;1.00
-0.07;-0.00;1.11
-0.10;-0.04;1.04
-0.02;-0.07;0.97
-0.00;-0.06;0.91
-0.00;-0.06;0.95
0.05;-0.03;0.94
0.02;0.02;0.97
-0.00;0.03;1.00
-0.06;0.00;1.07
-0.08;-0.04;0.98
-0.07;-0.04;0.95
-0.08;-0.14;1.05
0.01;0.03;1.03
-0.01;0.03;1.00
-0.03;-0.01;1.00
0.01;-0.05;1.02
-0.03;-0.04;1.02
-0.03;-0.01;1.00
-0.01;-0.01;0.96
0.00;0.06;0.90
-0.00;-0.02;0.96
-0.06;-0.01;1.00
-0.06;-0.04;1.05
-0.07;-0.01;1.00
-0.05;0.00;1.00
-0.05;0.00;1.01
-0.08;-0.03;1.02
-0.06;-0.04;1.01
-0.06;-0.01;0.94
-0.04;-0.04;1.06
-0.06;-0.05;0.93
-0.03;-0.05;0.97
-0.15;-0.06;0.76
0.07;0.06;0.85
0.02;-0.00;0.92
0.04;-0.08;0.96
-0.03;-0.05;1.00
-0.04;-0.01;1.00
-0.03;-0.01;1.00
-0.01;-0.01;1.00
